,seconds_elapsed,z,y,x
0,0.143439697265625,-2.846007823944092,-0.5819768905639648,-0.4682464599609375
1,0.159217041015625,-2.6514663696289062,-0.5604323148727417,-0.4185569286346435
2,0.17511669921875,-2.132023811340332,-0.3661856651306152,-0.5359901189804077
3,0.190986083984375,-1.0233497619628906,-0.0410389900207519,-0.5224850177764893
4,0.206763427734375,-0.4497661590576172,0.2290151119232177,-0.3569204211235046
5,0.2226630859375,-0.7193202972412109,0.2695872783660888,-0.1578781604766845
6,0.238471435546875,-0.8109474182128906,0.145296573638916,-0.2446722388267517
7,0.25437109375,0.3405961990356445,0.1491501331329345,-0.0775878429412841
8,0.270270751953125,1.5721473693847656,0.2505974769592285,0.2889077663421631
9,0.28607861328125,2.3789119720458984,0.1962623596191406,0.649343729019165
10,0.301978271484375,2.8623199462890625,0.2037711143493652,0.3647843599319458
11,0.31790869140625,2.700389862060547,0.1471118927001953,-0.0034120082855224
12,0.333777587890625,2.1640186309814453,-0.0576871633529663,-0.409338116645813
13,0.349616455078125,2.0739917755126958,0.1451317071914672,-0.6732075810432434
14,0.365485595703125,2.3445873260498047,0.2557688951492309,-0.7290264964103699
15,0.381568359375,2.417898178100586,0.2013574838638305,0.025755763053894
16,0.397345703125,2.2820701599121094,-0.1227583885192871,0.3317008018493652
17,0.413154052734375,2.79458236694336,-0.5664655566215515,-0.0316763520240783
18,0.428992431640625,3.740675926208496,-0.9806343913078308,-0.3193126916885376
19,0.44480078125,5.018012046813965,-1.0988646745681765,0.1911458969116211
20,0.460669921875,5.592435836791992,-1.401252269744873,0.7965996861457825
21,0.47650830078125,4.933927536010742,-1.1725616455078125,1.0021618604660034
22,0.49234716796875,3.0177392959594727,-1.029299259185791,0.6576481461524963
23,0.508124755859375,1.3911638259887695,-0.858512282371521,0.0585899949073791
24,0.523902099609375,0.4463663101196289,-0.6541436314582825,-0.0492355227470397
25,0.539740966796875,-0.0041723251342773,-0.5909345746040344,0.1026353240013122
26,0.555548828125,-0.3383817672729492,-0.5866351127624512,0.3203808665275574
27,0.5713876953125,-0.974452018737793,-0.5017178058624268,0.3753707408905029
28,0.587195556640625,-1.3479938507080078,-0.400191068649292,0.2716492116451263
29,0.60300390625,-1.9393978118896484,-0.3912825584411621,0.1420627981424331
30,0.61893408203125,-2.773595333099365,-0.5027958154678345,-0.1268850117921829
31,0.634741943359375,-2.900094985961914,-0.5409516096115112,-0.3038977980613708
32,0.650611083984375,-2.399430751800537,-0.4916579723358154,-0.0929072126746177
33,0.666449951171875,-1.8817763328552248,-0.5379034280776978,0.4635798931121826
34,0.6822578125,-1.759528636932373,-0.4990006685256958,0.7412582039833069
35,0.698157470703125,-2.377007484436035,-0.392492413520813,0.2373936921358108
36,0.7139658203125,-3.094855785369873,-0.0314255952835083,-0.0821336805820465
37,0.72980419921875,-3.6786837577819824,0.1797957420349121,-0.2742119431495666
38,0.74564306640625,-3.878981590270996,0.2424015998840332,-0.2346043735742569
39,0.761481689453125,-3.156731128692627,0.2445688247680664,-0.2896977066993713
40,0.777411865234375,-1.741560935974121,0.1422576904296875,-0.3740596771240234
41,0.79325048828125,-0.3019981384277344,0.098935842514038,-0.341155856847763
42,0.8091806640625,1.0535945892333984,0.0501682758331298,-0.3935363292694092
43,0.82501904296875,1.5996198654174805,-0.0376477241516113,-0.310917854309082
44,0.840827392578125,1.2412605285644531,-0.1635651588439941,-0.1844710558652877
45,0.85672705078125,1.053497314453125,-0.1061224937438964,-0.4527478516101837
46,0.87253515625,0.9728059768676758,-0.4241271018981933,-1.008360743522644
47,0.888404296875,1.40826416015625,-0.4519015550613403,-0.9234559535980223
48,0.904212158203125,1.921133041381836,-0.5348637104034424,-1.1834871768951416
49,0.919989990234375,2.4613771438598637,-0.7304266691207886,-1.7753961086273191
50,0.9358896484375,2.388934135437012,-0.8694556951522827,-2.0526344776153564
51,0.95163671875,1.866504669189453,-1.1914371252059937,-1.6224604845046997
52,0.967536376953125,1.3687772750854492,-1.6600289344787598,-1.3540284633636477
53,0.983344482421875,1.4207944869995115,-1.730351805686951,-1.4724568128585815
54,0.999244140625,1.536418914794922,-1.6066064834594729,-1.8565545082092283
55,1.01511328125,1.8923463821411133,-1.3597815036773682,-2.1455392837524414
56,1.030951904296875,1.5842819213867188,-1.3214309215545654,-2.3425440788269043
57,1.04682080078125,1.268878936767578,-1.1185271739959717,-2.422440528869629
58,1.06265966796875,1.0196514129638672,-0.9829481840133668,-2.343126058578491
59,1.0784677734375,0.4025325775146484,-0.8907151222229004,-2.228501319885254
60,1.094367431640625,-0.5060691833496094,-0.8199646472930908,-1.982892632484436
61,1.110175537109375,-1.5957365036010742,-0.5058002471923828,-1.8037900924682615
62,1.1260751953125,-2.1545324325561523,-0.3317694067955017,-1.795686960220337
63,1.141913818359375,-2.2830138206481934,-0.1593970656394958,-1.5749791860580444
64,1.15778271484375,-2.0793795585632324,-0.016326904296875,-1.1626126766204834
65,1.17365185546875,-2.148258209228516,0.1065577268600463,-0.837670087814331
66,1.18949072265625,-2.167449474334717,0.1557914018630981,-0.5587643980979919
67,1.20548193359375,-1.851746082305908,0.2480585575103759,-0.3323334753513336
68,1.2212900390625,-2.127427577972412,0.4192040562629699,-0.1701712608337402
69,1.2371591796875,-2.764023303985596,0.6824235320091248,-0.21576789021492
70,1.2530283203125,-3.72635555267334,0.9624554514884948,-0.6606582403182983
71,1.26883642578125,-3.805017471313477,1.2202112674713137,-0.7460955381393433
72,1.284766357421875,-3.0063376426696777,1.247902512550354,-0.6689106822013855
73,1.300605224609375,-1.615462303161621,1.1445024013519287,-0.4216077327728271
74,1.316474365234375,0.1391839981079101,1.017978549003601,-0.3539486825466156
75,1.332343505859375,1.4851179122924805,0.8698792457580566,-0.4758026897907257
76,1.34812109375,2.0567169189453125,0.7726507186889648,-0.6057504415512085
77,1.36395947265625,2.1631641387939453,0.525965690612793,-0.4956414103507995
78,1.37979833984375,2.058024406433105,0.4559088945388794,-0.6859495639801025
79,1.395636962890625,1.8342208862304688,0.2588181495666504,-0.8118476271629333
80,1.411505859375,1.708417892456055,-0.0677740573883056,-0.6284260153770447
81,1.4273447265625,2.615478515625,0.0675016641616821,0.027970016002655
82,1.4432138671875,3.0270299911499023,0.3089672327041626,0.432580828666687
83,1.459052490234375,2.482306480407715,0.2669142484664917,0.5096502900123596
84,1.474830078125,1.8826837539672847,0.1300328969955444,0.3490045666694641
85,1.49069921875,2.3912506103515625,-0.2309802770614624,0.3471745252609253
86,1.50650732421875,3.183260917663574,-0.6687541007995605,0.379848301410675
87,1.522406982421875,4.392009735107422,-0.6528354287147522,0.4464510083198547
88,1.538276123046875,4.439455032348633,-0.747541069984436,0.5999107956886292
89,1.55411474609375,3.65279769897461,-0.93019300699234,0.7105991840362549
90,1.570014404296875,2.4907665252685547,-0.9975674748420716,0.4741873145103454
91,1.5857919921875,1.258284568786621,-1.036787986755371,0.3675285577774048
92,1.60172216796875,-0.0671167373657226,-1.0376476049423218,0.128222107887268
93,1.617530029296875,-0.6613368988037109,-1.101811170578003,-0.1202402412891388
94,1.63333837890625,-0.6219806671142578,-1.093113899230957,-0.0423551201820373
95,1.649238037109375,-0.334259033203125,-1.1626195907592771,0.2050799429416656
96,1.6650458984375,0.0345954895019531,-1.1108969449996948,0.5087270736694336
97,1.680915283203125,-0.1595563888549804,-0.9736028909683228,0.6030729413032532
98,1.696723388671875,-1.0586633682250977,-0.7546730041503906,0.6366068124771118
99,1.712531494140625,-2.283554077148437,-0.5413013696670532,0.576542854309082
100,1.728400634765625,-3.265496253967285,-0.4536623358726501,0.4570047259330749
101,1.74417822265625,-3.6364240646362314,-0.4161979556083679,0.2917016148567199
102,1.76004736328125,-3.259398937225342,-0.3265196084976196,0.2212816625833511
103,1.77585546875,-2.853649139404297,-0.1888643503189087,0.436906099319458
104,1.79166357421875,-2.7687087059021,0.1231087446212768,0.8520667552947998
105,1.807563232421875,-3.08450984954834,0.3902091979980469,0.9667909145355223
106,1.8233408203125,-3.3816561698913574,0.5682008266448975,0.6930137276649475
107,1.839240478515625,-3.323185443878174,0.5642203092575073,0.2397927045822143
108,1.8550791015625,-2.51173734664917,0.5409384965896606,0.1496613025665283
109,1.87088720703125,-1.2531242370605469,0.3276325464248657,0.2131883203983307
110,1.88675634765625,0.5038719177246094,0.1444979906082153,0.5791530609130859
111,1.902564453125,1.6861820220947266,-0.0404243469238281,0.8471505641937256
112,1.91843359375,1.8380279541015625,-0.1309630870819091,0.8963031768798828
113,1.934241455078125,1.8286638259887693,0.0066044330596923,0.500095009803772
114,1.9500498046875,1.3040285110473633,0.0883936882019043,-0.5289738178253174
115,1.965949462890625,0.9349451065063475,-0.119431734085083,-1.4047647714614868
116,1.98172705078125,1.5420169830322266,-0.0100809335708618,-1.0135574340820312
117,1.99759619140625,2.1521358489990234,-0.4581347703933716,-0.6386871337890625
118,2.013434814453125,2.5034780502319336,-0.5477522611618042,-0.7644599676132202
119,2.029242919921875,2.054696083068848,-0.7022226452827454,-1.3634980916976929
120,2.045112060546875,1.8828487396240237,-1.0365550518035889,-2.0545170307159424
121,2.060920166015625,1.9973840713500977,-1.444748878479004,-2.7367563247680664
122,2.07681982421875,2.580878257751465,-1.6401901245117188,-2.6916632652282715
123,2.092658447265625,2.789833068847656,-1.7201967239379885,-2.356209516525269
124,2.108496826171875,2.805182456970215,-1.375690221786499,-1.9094504117965696
125,2.124365966796875,1.9961671829223635,-1.1711795330047607,-2.046463966369629
126,2.140204833984375,0.7311630249023438,-1.0631529092788696,-2.0684828758239746
127,2.1561044921875,-0.2468633651733398,-0.9367890357971193,-1.922868132591248
128,2.171943115234375,-1.2366828918457031,-0.9449152946472168,-1.781538963317871
129,2.18778173828125,-1.8020648956298828,-0.9463303089141846,-1.1614046096801758
130,2.20365087890625,-1.841409683227539,-0.8693432211875916,-0.7589306831359863
131,2.219458740234375,-1.602407455444336,-0.652886152267456,-0.3577659130096435
132,2.235327880859375,-1.722569465637207,-0.3691866397857666,-0.182878240942955
133,2.251166748046875,-2.1998538970947266,-0.1436349153518676,-0.0335675626993179
134,2.266974609375,-2.81553316116333,0.0969477891921997,-0.0067849270999431
135,2.282843994140625,-3.2231340408325195,0.3705145716667175,-0.2588673532009125
136,2.298591064453125,-3.3897838592529297,0.563829243183136,-0.3119699656963348
137,2.31449072265625,-3.47866153717041,0.6445400714874268,-0.2108864188194275
138,2.330298828125,-3.3079614639282227,0.8036085367202759,-0.1280730813741684
139,2.34610693359375,-2.463631153106689,0.9789834022521972,0.0682548284530639
140,2.36197607421875,-1.6756563186645508,1.0417957305908203,0.1873048841953277
141,2.377753662109375,-1.5533714294433594,1.0751930475234983,0.1684100925922393
142,2.3936533203125,-1.5589685440063477,1.159074306488037,-0.1555043756961822
143,2.409491943359375,-0.3662052154541015,1.144315242767334,-0.3649594187736511
144,2.425300048828125,0.943889617919922,1.128461480140686,-0.1928417682647705
145,2.441169189453125,1.7843046188354492,1.070459485054016,0.2655044198036194
146,2.45697705078125,2.251680374145508,0.584787130355835,0.6755443811416626
147,2.472876708984375,2.709287643432617,0.2921730279922485,0.5273807644844055
148,2.48874609375,3.024932861328125,-0.0459120273590087,0.0974416136741638
149,2.5044931640625,3.31435775756836,-0.3814717531204223,-0.0537859201431274
150,2.5203623046875,3.1899328231811523,-0.2265583276748657,0.2795639634132385
151,2.536170166015625,2.512721061706543,-0.1650692224502563,0.7748964428901672
152,2.552039306640625,2.295416831970215,-0.2949806451797485,0.8104323744773865
153,2.56784765625,2.988290786743164,-0.7459222674369812,0.5716620087623596
154,2.58365576171875,4.327324867248535,-1.322089910507202,0.6715434193611145
155,2.59943310546875,5.273904800415039,-1.4408419132232666,0.8524677753448486
156,2.615241455078125,4.813808441162109,-1.5866414308547974,1.3140686750411987
157,2.63114111328125,3.505791664123535,-1.5879532098770142,1.4204694032669067
158,2.6469794921875,1.8804712295532229,-1.540379762649536,1.1278016567230225
159,2.662818359375,0.8120231628417969,-1.46612811088562,0.7369645833969116
160,2.678718017578125,0.1840877532958984,-1.4791815280914309,0.6499497294425964
161,2.69449560546875,-0.031982421875,-1.502480149269104,0.6361368894577026
162,2.710334228515625,-0.6043319702148438,-1.5714807510375977,0.5765860080718994
163,2.72614208984375,-1.028240203857422,-1.589303731918335,0.5572865009307861
164,2.74198095703125,-1.2633075714111328,-1.6322189569473269,0.5943179726600647
165,2.75785009765625,-1.400404930114746,-1.5314546823501587,0.6201172471046448
166,2.773658203125,-1.7115726470947266,-1.418959379196167,0.5910371541976929
167,2.789496826171875,-2.470987319946289,-1.2618101835250854,0.5565903782844543
168,2.805365966796875,-2.966590404510498,-1.1875672340393066,0.6247040033340454
169,2.821174072265625,-3.1782960891723637,-1.0692695379257202,0.7419608235359192
170,2.837043212890625,-3.3498668670654297,-0.935594379901886,0.739493191242218
171,2.852851318359375,-3.58104944229126,-0.8478414416313171,0.6937336921691895
172,2.868659423828125,-3.548947334289551,-0.7200739979743958,0.6576276421546936
173,2.884497802734375,-3.1610679626464844,-0.543708086013794,0.5961450934410095
174,2.90030615234375,-2.983879566192627,-0.3159288167953491,0.6587674021720886
175,2.91617529296875,-3.126515865325928,-0.118196964263916,0.7881249785423279
176,2.9319833984375,-3.2057552337646484,0.1307246685028076,0.7487974166870117
177,2.9478525390625,-2.3833937644958496,0.2566190958023071,0.4103727340698242
178,2.963752197265625,-1.328704833984375,0.2469992637634277,0.3537605702877044
179,2.979621337890625,0.0805253982543945,0.2365133762359619,0.6165314316749573
180,2.995490234375,1.4354963302612305,0.0507184267044067,0.6276976466178894
181,3.0113291015625,2.295119285583496,0.0115138292312622,0.3506763577461242
182,3.027259033203125,2.4359798431396484,0.0108864307403564,0.2232232987880706
183,3.0430673828125,2.087038993835449,-0.0858219861984252,-0.0016486644744873
184,3.05887548828125,2.063199043273926,-0.0982228517532348,-0.507289469242096
185,3.074775146484375,2.745227813720703,0.2070938348770141,-0.9760107398033142
186,3.09061376953125,3.076627731323242,-0.0782080888748169,-0.883348286151886
187,3.106391357421875,3.6019859313964844,-0.320034384727478,-0.3619574904441833
188,3.12219921875,3.699732780456543,-0.9209320545196532,-0.6089124083518982
189,3.138007568359375,3.609129905700684,-1.5155518054962158,-1.3564224243164062
190,3.153876708984375,3.4940719604492188,-1.6588566303253174,-1.525186538696289
191,3.169684814453125,3.941037178039551,-1.9671106338500977,-1.8934054374694824
192,3.18558447265625,4.383210182189941,-1.6793417930603027,-1.6703821420669556
193,3.201392578125,3.6172285079956055,-1.502535104751587,-1.4694457054138184
194,3.21720068359375,2.330006599426269,-1.2805594205856323,-1.327087640762329
195,3.23306982421875,0.6671648025512695,-0.9818177223205566,-1.847530961036682
196,3.2488779296875,-0.8057889938354492,-0.8019365072250366,-1.9007359743118288
197,3.26468603515625,-1.8358139991760252,-0.8343274593353271,-1.1599574089050293
198,3.280494140625,-2.524623394012451,-0.9259541630744934,-0.4461573958396911
199,3.296271728515625,-2.5100717544555664,-0.7826665043830872,-0.1074624955654144
200,3.31220166015625,-2.429647445678711,-0.6530923247337341,-0.0741907954216003
201,3.32804052734375,-2.6716103553771973,-0.5144816040992737,0.0964359194040298
202,3.34390966796875,-2.6579222679138184,-0.3273829817771911,0.3183602392673492
203,3.35977880859375,-2.9961977005004883,-0.1555385589599609,0.2723316848278045
204,3.3756171875,-3.817552089691162,-0.0397354364395141,0.1537714004516601
205,3.391516845703125,-4.462231159210205,0.0449830293655395,0.0860611200332641
206,3.407294677734375,-4.143797874450684,0.1711242198944091,-0.2265740633010864
207,3.42313330078125,-3.227168560028076,0.1860489845275879,-0.143461525440216
208,3.438971923828125,-2.444231510162353,0.2852940559387207,0.2780866026878357
209,3.454810302734375,-2.282895565032959,0.4393787384033203,0.3485810756683349
210,3.470710205078125,-2.3367977142333984,0.576958417892456,0.0130127668380737
211,3.4865791015625,-1.690169334411621,0.6193735599517822,-0.292822003364563
212,3.502478759765625,-0.5856256484985352,0.4120115041732788,0.0014805495738983
213,3.518287109375,1.894850730895996,0.4211641550064087,0.6522457599639893
214,3.53409521484375,3.043121337890625,0.2510805130004883,1.1905617713928225
215,3.54996435546875,2.3708419799804688,0.2945815324783325,1.4099313020706177
216,3.565802978515625,1.3714609146118164,0.1855952739715576,0.6525529623031616
217,3.58170263671875,1.8121747970581052,-0.0686590671539306,-0.6209871768951416
218,3.597480224609375,3.3122949600219727,-0.0090579986572265,-0.8014041185379028
219,3.6132578125,4.758007049560547,0.1962624788284301,0.0911863446235656
220,3.629126953125,5.49458122253418,0.3417528867721557,1.192209243774414
221,3.644934814453125,5.551191329956055,0.3195780515670776,1.0061883926391602
222,3.66083447265625,5.2281341552734375,-0.0322332382202148,0.2064703106880188
223,3.67667333984375,4.78675651550293,-0.4107546806335449,-0.4647572934627533
224,3.692481201171875,4.494217872619629,-0.7171198129653931,-0.3499572277069092
225,3.708380859375,3.62083911895752,-1.211193323135376,0.268223226070404
226,3.724189208984375,2.4474496841430664,-1.5734426975250244,0.8082977533340454
227,3.740149658203125,1.3581676483154297,-1.686944603919983,1.3219406604766846
228,3.756080078125,0.0806903839111328,-1.633556842803955,1.494209051132202
229,3.77188818359375,-1.246072769165039,-1.462453842163086,1.2745250463485718
230,3.787726806640625,-2.4232945442199707,-1.366896390914917,0.819215714931488
231,3.803595703125,-3.4430599212646484,-1.4428837299346924,0.3565571010112762
232,3.819495361328125,-3.744643688201904,-1.4841381311416626,0.1726948618888855
233,3.835273193359375,-3.6245970726013184,-1.5128531455993652,0.723268985748291
234,3.851081298828125,-3.934205055236816,-1.612695574760437,1.0459773540496826
235,3.86698095703125,-4.011280536651611,-1.5922250747680664,1.0573151111602783
236,3.8827890625,-3.8226046562194815,-1.4788620471954346,0.7581835389137268
237,3.898566650390625,-3.422760486602783,-1.2075058221817017,0.132233053445816
238,3.914374755859375,-2.8681678771972656,-1.0921268463134766,-0.1088025942444801
239,3.93021337890625,-2.4255599975585938,-0.9091193675994872,0.0545219741761684
240,3.946113037109375,-1.9734835624694824,-0.6939350366592407,0.057350967079401
241,3.961921142578125,-1.6660685539245603,-0.2990052700042724,-0.2982755005359649
242,3.977790283203125,-2.276524066925049,0.2914283275604248,-0.7970934510231018
243,3.993659423828125,-3.138286590576172,0.5903874635696411,-0.5305477380752563
244,4.00946728515625,-3.0767502784729004,0.6619217395782471,0.4459106922149658
245,4.025397705078125,-1.472980499267578,0.448479413986206,1.10822331905365
246,4.0412666015625,1.576679229736328,0.3915026187896728,1.384401559829712
247,4.057166259765625,3.367664337158203,0.5703065395355225,1.334299921989441
248,4.072974609375,3.492842674255371,0.4849851131439209,1.3475024700164795
249,4.088752197265625,3.7129335403442383,0.5504076480865479,1.0535151958465576
250,4.104621337890625,3.7457237243652335,0.3887948989868164,0.8427926898002625
251,4.1204599609375,3.517937660217285,0.0023334026336669,0.2267043590545654
252,4.136328857421875,3.5651636123657227,-0.1415376663208007,-0.0601685494184494
253,4.1521982421875,3.465468406677246,-0.4324969053268432,-0.072046086192131
254,4.16800634765625,2.6472787857055664,-0.5597039461135864,-0.119239866733551
255,4.183875244140625,2.044365882873535,-0.6767163276672363,-0.4777948260307312
256,4.199714111328125,2.003185272216797,-1.0095701217651367,-1.2585197687149048
257,4.215583251953125,2.78034782409668,-1.3015263080596924,-2.037839412689209
258,4.231421630859375,3.681728363037109,-1.7009860277175903,-2.1916251182556152
259,4.247260498046875,4.446702003479004,-1.794230580329895,-1.9505025148391724
260,4.26316015625,4.418827056884766,-2.1143784523010254,-2.002119541168213
261,4.278876708984375,3.119979858398437,-1.6608283519744873,-1.8047786951065063
262,4.294837158203125,0.3847103118896484,-1.2789579629898071,-2.958632230758667
263,4.3106455078125,-2.260408878326416,-0.9677014350891112,-3.5806448459625244
264,4.32648388671875,-3.446847438812256,-0.9663467407226562,-2.9031636714935303
265,4.342383544921875,-3.067418575286865,-1.1156818866729736,-1.7759604454040527
266,4.35819189453125,-2.0497097969055176,-1.2131426334381104,-0.4531713128089905
267,4.374091552734375,-1.2227668762207031,-1.1759408712387085,0.5333817601203918
268,4.389869140625,-1.2479934692382812,-0.953392505645752,0.778232991695404
269,4.405707763671875,-2.176863670349121,-0.6805661916732788,0.4935814142227173
270,4.421637939453125,-3.505068302154541,-0.452114462852478,0.0906139016151428
271,4.43741552734375,-4.647112846374512,-0.2530786991119385,0.2454480528831482
272,4.453315185546875,-5.021545886993408,-0.141491413116455,0.1931737065315246
273,4.469184326171875,-4.127712249755859,-0.1429920196533203,0.1852184534072876
274,4.48502294921875,-2.982762336730957,-0.1673816442489624,0.2806706428527832
275,4.500922607421875,-2.2119674682617188,-0.1227809190750122,0.3626618981361389
276,4.516730712890625,-2.2332687377929688,0.0392168760299682,0.3970012664794922
277,4.53263037109375,-2.214181900024414,0.3622145652770996,0.0379824638366699
278,4.5484384765625,-1.4897117614746094,0.7391942739486694,-0.4297431707382202
279,4.56424658203125,-0.8465824127197266,0.9387526512145996,-0.4377004504203796
280,4.5801767578125,1.0806093215942385,0.7816070318222046,0.4776886105537414
281,4.59598486328125,2.66885757446289,0.5904161930084229,1.538617491722107
282,4.611853759765625,3.007147789001465,0.5748395919799805,1.4281001091003418
283,4.627692626953125,2.803308486938477,0.55243980884552,0.0145908594131469
284,4.643500732421875,2.998410224914551,0.3127959966659546,-1.0035792589187622
285,4.65936962890625,3.643754005432129,0.2946213483810425,-0.5300306677818298
286,4.675177978515625,4.148955345153809,0.505030632019043,0.1154818534851074
287,4.69107763671875,2.3308067321777344,0.8079448938369751,1.103097915649414
288,4.706916015625,2.043323516845703,0.2536332607269287,1.0955557823181152
289,4.722724365234375,5.877235412597656,-0.2444068193435669,0.0746439695358276
290,4.7386240234375,8.555564880371094,-0.6232828497886658,-1.6937932968139648
291,4.754401611328125,6.8713579177856445,-0.7842597365379333,-2.1103320121765137
292,4.77020947265625,1.3409881591796875,-1.1069073677062988,-0.1460780203342437
293,4.78607861328125,-3.016765594482422,-1.2458019256591797,1.0838173627853394
294,4.801886962890625,-3.0578174591064453,-1.6286816596984863,1.5939961671829224
295,4.817756103515625,-0.7350645065307617,-1.9538915157318115,1.4271161556243896
296,4.83353369140625,0.8599166870117188,-2.0215718746185303,0.8037142753601074
297,4.84940283203125,0.6894969940185547,-1.808093786239624,0.9441512823104858
298,4.865271728515625,-0.002058982849121,-1.6725037097930908,1.2779195308685305
299,4.881080078125,-0.2422351837158203,-1.5326342582702637,1.1741647720336914
300,4.89691845703125,-0.5093116760253906,-1.5037444829940796,1.2419836521148682
301,4.91275732421875,-1.505819320678711,-1.357305884361267,1.2357771396636963
302,4.928595947265625,-2.6890363693237305,-1.159289836883545,1.0530450344085691
303,4.944434326171875,-3.742930412292481,-0.8882687091827393,0.8627986907958984
304,4.96024267578125,-4.30744218826294,-0.7994047403335571,0.8646979331970215
305,4.97611181640625,-4.3406901359558105,-0.7625727653503418,0.4763838946819305
306,4.991919921875,-4.0897746086120605,-0.3826799988746643,0.1560782790184021
307,5.0077890625,-3.412140369415283,-0.209991455078125,0.1228957772254943
308,5.02362744140625,-2.5102763175964355,-0.0166926383972167,0.3924845457077026
309,5.039435791015625,-2.2989792823791504,0.1362870931625366,0.6002668142318726
310,5.05533544921875,-3.021653175354004,0.4401881694793701,0.3619592785835266
311,5.071143310546875,-3.1395750045776367,0.8078272342681885,-0.2605844140052795
312,5.0870126953125,-0.7028102874755859,0.8713918924331665,-0.5455247163772583
313,5.1028818359375,2.423172950744629,0.4841184616088867,0.1071654260158538
314,5.118689697265625,4.568610191345215,0.2239261865615844,0.9185099601745604
315,5.13455908203125,4.412477493286133,0.0785799026489257,1.1577463150024414
316,5.1503671875,2.7896242141723637,0.2235255241394043,0.7813530564308167
317,5.166236083984375,1.3328514099121094,0.294719934463501,-0.1617369651794433
318,5.182074951171875,1.6435871124267578,0.3293495178222656,-1.7627055644989014
319,5.1978828125,3.182497024536133,0.5835071802139282,-1.8721015453338623
320,5.21378271484375,3.899182319641113,0.5677460432052612,-1.296902775764465
321,5.2295908203125,3.1825733184814453,0.6419558525085449,-1.4789495468139648
322,5.245490478515625,2.0107879638671875,0.2717229127883911,-1.871588945388794
323,5.26126806640625,1.3427047729492188,-0.6628340482711792,-2.195653915405273
324,5.277076171875,1.89546012878418,-1.6337885856628418,-2.569101095199585
325,5.292945068359375,3.419207572937012,-2.3778953552246094,-2.609120607376098
326,5.30875341796875,4.177652359008789,-2.846438407897949,-1.2627252340316772
327,5.32462255859375,3.954966545104981,-2.6633925437927246,0.091084599494934
328,5.340491455078125,2.368478775024414,-2.286299705505371,0.0733518451452255
329,5.356269287109375,-0.0484342575073242,-1.908000349998474,-1.0597366094589231
330,5.372139404296875,-2.2906293869018555,-1.469446897506714,-2.410079002380371
331,5.38810009765625,-2.990506172180176,-1.2849899530410769,-2.252418041229248
332,5.403999755859375,-2.943045139312744,-1.2856262922286987,-1.2041234970092771
333,5.41983837890625,-2.617361545562744,-1.307584285736084,-0.5289018154144287
334,5.43567724609375,-2.314455509185791,-1.2191113233566284,0.0058052092790603
335,5.451546142578125,-2.4294276237487797,-1.0185240507125854,0.2981705665588379
336,5.467354248046875,-2.814273834228516,-0.7018927931785583,0.0175599157810211
337,5.48325390625,-3.3063883781433105,-0.365447998046875,-0.2485210299491882
338,5.4990927734375,-4.114928245544434,-0.1879950165748596,-0.3366357982158661
339,5.51493115234375,-5.018495559692383,0.0145604610443115,-0.2975210547447204
340,5.53080029296875,-5.003138065338135,-0.0103559494018554,-0.243135005235672
341,5.5466083984375,-3.932828426361084,-0.0371434688568115,0.293784499168396
342,5.5625693359375,-2.574137687683105,0.1296699047088623,0.623895525932312
343,5.57840771484375,-1.9927067756652832,0.3581404685974121,0.3593661189079284
344,5.594246337890625,-2.112295150756836,0.6907999515533447,0.1609399318695068
345,5.61014599609375,-1.809081077575684,0.9904932975769044,0.0160419940948486
346,5.625923583984375,-1.009634017944336,1.082810878753662,0.361618161201477
347,5.6418232421875,1.3773880004882812,0.9962656497955322,1.244115114212036
348,5.657631591796875,3.684591293334961,0.8753467798233032,2.142578125
349,5.673469970703125,4.383968353271484,0.6738731861114502,1.8276194334030151
350,5.68936962890625,3.941354751586914,0.5304993391036987,0.2269713878631591
351,5.705208251953125,3.570344924926758,0.2952511310577392,-1.4549481868743896
352,5.72110791015625,3.495011329650879,0.3469172716140747,-1.373928189277649
353,5.736885498046875,3.30551815032959,0.390399694442749,-0.4348491430282593
354,5.752663330078125,4.300148963928223,0.6059427261352539,0.3569288253784179
355,5.76856298828125,5.316220283508301,0.3868098258972168,0.1043263673782348
356,5.784370849609375,5.815791130065918,-0.1394194960594177,-0.2398508787155151
357,5.800392822265625,5.8348541259765625,-0.7010080814361572,-0.7125959396362305
358,5.816231201171875,4.967952728271484,-1.1600077152252195,-0.9243968725204468
359,5.832039306640625,3.1722803115844727,-1.445354461669922,-0.3437671065330505
360,5.848,0.9186248779296876,-1.6001687049865725,0.2237778902053833
361,5.86377783203125,-0.2469911575317382,-1.6948988437652588,0.2415812015533447
362,5.879585693359375,-0.6506986618041992,-1.9833285808563232,0.3679460287094116
363,5.895393798828125,-0.5750770568847656,-2.0370187759399414,0.5737651586532593
364,5.911171630859375,-0.5312557220458984,-2.06426215171814,0.6352543830871582
365,5.927010009765625,-0.8707122802734375,-1.908815860748291,0.4598771333694458
366,5.942818359375,-1.6350507736206057,-1.7557443380355835,0.4804383516311645
367,5.958687255859375,-1.8774847984313965,-1.4442169666290283,0.8280783295631409
368,5.97452587890625,-2.526619911193848,-1.1290714740753174,0.641713559627533
369,5.990333984375,-3.400434970855713,-0.9819819927215576,0.2712491750717163
370,6.00623388671875,-4.124526023864746,-0.8871592879295349,-0.0272324681282043
371,6.022041748046875,-4.361713886260986,-0.7361593246459961,-0.1824647784233093
372,6.037849853515625,-3.987936019897461,-0.695814847946167,-0.2348614931106567
373,6.0536884765625,-3.338829517364502,-0.6281816363334656,-0.2424688339233398
374,6.06952734375,-3.526816368103028,-0.3506657481193542,-0.1080468893051147
375,6.08545751953125,-4.391052722930908,0.0912350416183471,-0.2170709073543548
376,6.1012958984375,-4.986937999725342,0.5456582307815552,-0.547787606716156
377,6.11719580078125,-3.669448375701904,0.7329427003860474,-0.064433217048645
378,6.132973388671875,-1.813194751739502,0.8350732326507568,0.6711260080337524
379,6.14878125,0.3507032394409179,0.8889751434326172,1.1378310918807983
380,6.164650390625,1.8847169876098635,0.9098132848739624,1.4798680543899536
381,6.1803671875,2.9466428756713867,0.994159460067749,1.42668354511261
382,6.196297119140625,2.8994293212890625,1.094011306762695,0.8559049367904663
383,6.212105224609375,2.708730697631836,1.1561195850372314,0.2876593768596649
384,6.227974365234375,2.9187450408935547,1.0001106262207031,-0.3014688491821289
385,6.2438740234375,3.511784553527832,0.8423707485198975,-0.4674162268638611
386,6.259651611328125,4.048961639404297,0.8107571601867676,-0.5394423007965088
387,6.2754599609375,4.27044677734375,0.6499170064926147,-0.5877049565315247
388,6.291298583984375,3.631028175354004,0.4278485774993896,-1.041676044464111
389,6.3071064453125,2.431671142578125,-0.3203296065330505,-1.7919963598251345
390,6.323006103515625,3.0376882553100586,-1.6262037754058838,-1.524792194366455
391,6.338814208984375,4.439118385314941,-2.5629658699035645,-0.6089284420013428
392,6.35465283203125,4.880892753601074,-3.177930355072021,0.068959355354309
393,6.37049169921875,3.662666320800781,-3.040292263031006,-0.1698029637336731
394,6.386299560546875,2.525832176208496,-2.707244873046875,-2.125927448272705
395,6.402229736328125,1.2306642532348633,-2.025829553604126,-3.762522220611572
396,6.417976806640625,-0.1431808471679687,-1.425807237625122,-2.9872889518737797
397,6.43387646484375,-1.694694995880127,-1.2502716779708862,-1.4365806579589844
398,6.449715087890625,-2.431896209716797,-1.243669509887695,-0.598093569278717
399,6.465523193359375,-2.22827672958374,-1.1279938220977783,-0.1454295516014099
400,6.4814228515625,-1.9608640670776367,-0.7882082462310791,0.0742086172103881
401,6.497231201171875,-2.3689537048339844,-0.4316831827163696,0.0145310163497924
402,6.513100341796875,-3.0961241722106934,-0.0348259210586547,-0.6446097493171692
403,6.528938720703125,-4.121918678283691,0.2854838371276855,-1.0928990840911863
404,6.544777587890625,-5.29365348815918,0.3155537843704223,-0.9840553998947144
405,6.560677001953125,-5.8607940673828125,0.1103467941284179,-1.226413607597351
406,6.576424072265625,-5.29005241394043,-0.0058069229125976,-0.738904595375061
407,6.592262939453125,-4.961796760559082,-0.1363154649734497,-0.4356023073196411
408,6.608101318359375,-4.588648796081543,0.0711159706115722,0.0358884334564209
409,6.623940185546875,-4.14433479309082,0.2909015417098999,0.574857234954834
410,6.639809326171875,-3.2491674423217773,0.6273995637893677,1.039138913154602
411,6.6556171875,-2.604478359222412,0.872999906539917,0.8790404796600342
412,6.671516845703125,-1.7666616439819336,1.192971110343933,-0.0329793691635131
413,6.687324951171875,0.9629678726196288,0.9955333471298218,-0.7682503461837769
414,6.70313330078125,4.561761856079102,0.6611330509185791,-0.2206342220306396
415,6.719063232421875,5.921131134033203,0.410076379776001,0.8726451992988586
416,6.7348408203125,4.627107620239258,0.5585860013961792,0.8594918847084045
417,6.7507099609375,3.753984451293945,0.7552676200866699,-0.2480847239494323
418,6.766548828125,3.6966609954833984,0.7800391912460327,-1.15900981426239
419,6.782356689453125,4.081661224365234,0.8755522966384888,-0.7471185922622681
420,6.79825634765625,4.160650253295898,0.7100248336791992,0.0605765581130981
421,6.81409521484375,3.3313236236572266,0.4847476482391357,1.268596649169922
422,6.82996435546875,3.35030460357666,-0.0969030857086181,1.3732433319091797
423,6.845802734375,4.718306541442871,-0.9778021574020386,0.6358256936073303
424,6.861611083984375,6.254369735717773,-1.6559884548187256,0.5745683908462524
425,6.877480224609375,6.065991401672363,-2.185751914978028,1.1060718297958374
426,6.893318603515625,4.431463241577148,-2.168933153152466,1.455627679824829
427,6.909187744140625,1.7418441772460938,-1.8473992347717283,1.0909271240234375
428,6.924995849609375,-0.6679067611694336,-1.3824602365493774,0.6784260869026184
429,6.940773681640625,-2.6766343116760254,-0.936577558517456,0.2562876939773559
430,6.956703857421875,-3.581057548522949,-0.8055666089057922,0.21761554479599
431,6.97242041015625,-3.278177261352539,-0.8938122987747192,0.0384089946746826
432,6.988289306640625,-2.0928878784179688,-1.0891934633255005,0.1001635193824768
433,7.0041279296875,-1.034255027770996,-1.136021375656128,0.2318600416183471
434,7.0199970703125,-1.0800437927246094,-1.0762085914611816,0.7894775867462158
435,7.03592724609375,-1.680312156677246,-0.8551465272903442,0.8389148116111755
436,7.051704833984375,-2.5066585540771484,-0.5968291759490967,0.6418842077255249
437,7.0676044921875,-3.6009531021118164,-0.3798111379146576,0.3890788555145263
438,7.0834736328125,-4.602041244506836,-0.2775677442550659,0.1409648656845092
439,7.099281982421875,-4.747001647949219,-0.0934703350067138,0.2915259599685669
440,7.115120361328125,-4.749184608459473,0.1344923973083496,0.3436745107173919
441,7.130958984375,-4.7710442543029785,0.4794539213180542,0.1963126957416534
442,7.146828369140625,-4.675445079803467,0.7143197059631348,-0.181880384683609
443,7.162666748046875,-3.5567665100097656,0.9908429384231568,-0.3917155861854553
444,7.17847509765625,-2.265081882476806,1.0267884731292725,-0.4976871609687805
445,7.19434423828125,0.6393518447875977,1.070754885673523,-0.3790910243988037
446,7.210152099609375,2.6259117126464844,0.9706077575683594,0.1127162277698516
447,7.2260517578125,3.0379514694213867,0.4276553392410278,0.963506817817688
448,7.24185986328125,3.0581369400024414,0.5674871206283569,1.111999750137329
449,7.257698486328125,3.056150436401367,0.6561191082000732,0.2212464809417724
450,7.273567626953125,3.0128307342529297,0.5017770528793335,-0.6886762976646423
451,7.289406494140625,4.149626731872559,0.19302499294281,-1.1661170721054075
452,7.305275390625,5.233111381530762,0.0335392951965332,-0.8494522571563721
453,7.321114013671875,5.238990783691406,-0.7801446914672852,-0.7945054769515991
454,7.336952880859375,4.399487495422363,-0.7531022429466248,0.0039554238319396
455,7.35282177734375,3.180017471313477,-1.074760675430298,-0.1153805255889892
456,7.368630126953125,2.470111846923828,-1.5721979141235352,-0.6863492131233215
457,7.384499267578125,2.4036340713500977,-2.055023431777954,-1.0183651447296145
458,7.40042919921875,2.96267032623291,-2.5329132080078125,-1.0944876670837402
459,7.4162373046875,3.398003578186035,-2.618243932723999,-1.1249816417694092
460,7.4321064453125,2.419207572937012,-2.5729289054870605,-1.18343186378479
461,7.447914794921875,0.3440170288085937,-1.99904465675354,-0.7885342240333557
462,7.463814453125,-1.9688124656677248,-1.5816352367401123,-0.6781869530677795
463,7.479592041015625,-3.6432504653930655,-1.3931156396865845,-0.8152035474777222
464,7.49539990234375,-3.794606685638428,-1.415904521942139,-1.2243396043777466
465,7.511299560546875,-3.3647351264953613,-1.3259899616241455,-1.3280073404312134
466,7.5270771484375,-2.5036115646362305,-1.0517866611480713,-1.3777035474777222
467,7.5429462890625,-2.1687264442443848,-0.6782084703445435,-0.7051827907562256
468,7.5588154296875,-2.1696701049804688,-0.2871167659759521,0.0984314382076263
469,7.574593017578125,-2.4431633949279785,0.1644074320793151,0.6106554269790649
470,7.590462158203125,-2.9249134063720703,0.4700515270233154,0.6614704728126526
471,7.6062705078125,-3.3857669830322266,0.6391416192054749,0.6044667959213257
472,7.622170166015625,-4.0397539138793945,0.5991637110710144,0.3258476555347442
473,7.63797802734375,-4.366071701049805,0.531009316444397,0.218232125043869
474,7.653755615234375,-3.9601640701293945,0.6421305537223816,-0.1316733062267303
475,7.669594482421875,-2.299323558807373,0.7832630276679993,-0.257692277431488
476,7.685432861328125,-0.156656265258789,0.5397379398345947,-0.3163031041622162
477,7.701302001953125,0.6200828552246094,0.6522422432899475,-0.0067046284675598
478,7.7171103515625,0.9272642135620116,0.6639610528945923,0.4617271423339844
479,7.7328876953125,0.6290864944458008,0.9333993196487428,0.4170949459075928
480,7.748757080078125,0.4227828979492187,1.087647795677185,-0.128389224410057
481,7.76456494140625,0.7749929428100586,1.101567268371582,-0.7815325260162354
482,7.78043408203125,2.017398834228516,0.6236766576766968,-0.7299431562423706
483,7.7962421875,3.3555564880371094,0.4217008352279663,-0.2174490243196487
484,7.81202001953125,3.652709007263184,0.2958066463470459,-0.3650517761707306
485,7.827919677734375,3.929745674133301,0.7650457620620728,0.158391997218132
486,7.843758056640625,4.058952331542969,0.695107102394104,0.4721414446830749
487,7.8595966796875,3.970083236694336,0.6780344247817993,0.1724969148635864
488,7.875374267578125,4.222381591796875,0.1563423871994018,-0.902923822402954
489,7.8911826171875,4.461512565612793,-0.2969925999641418,-1.0545045137405396
490,7.907082275390625,4.961325645446777,-1.272019863128662,-1.0666651725769043
491,7.92285986328125,5.393111228942871,-1.5526785850524902,0.0884125828742981
492,7.938667724609375,4.511029243469238,-1.565506100654602,0.8850083351135254
493,7.954506591796875,2.112473487854004,-1.42756450176239,1.209321141242981
494,7.970344970703125,-0.0624980926513671,-1.302315592765808,0.917155385017395
495,7.986214111328125,-1.4354753494262695,-1.2135053873062134,0.4703304469585418
496,8.0020224609375,-2.224842071533203,-1.1476633548736572,0.1489689350128173
497,8.017922119140625,-2.608650684356689,-1.1806484460830688,-0.0430898293852806
498,8.03372998046875,-2.4315805435180664,-1.1853975057601929,0.0779400318861007
499,8.049538330078125,-2.2157058715820312,-1.3075497150421145,0.3156057298183441
500,8.06543798828125,-2.2638044357299805,-1.1643704175949097,1.0266668796539309
501,8.081245849609376,-2.595044612884521,-1.0397154092788696,1.4057012796401978
502,8.097115234375,-3.5045886039733887,-0.8696200251579285,0.9457929134368896
503,8.11295361328125,-4.063658237457275,-0.6712474226951599,0.5143072009086609
504,8.1287314453125,-4.1596221923828125,-0.5326555967330933,0.2792356014251709
505,8.144631103515625,-3.774144172668457,-0.368069589138031,0.4039945006370544
506,8.16043896484375,-3.4424757957458496,-0.3553606271743774,0.7586342096328735
507,8.176338623046876,-3.589179515838623,-0.1627353429794311,0.8548375964164734
508,8.19214697265625,-3.1735825538635254,-0.0265470743179321,0.6087551712989807
509,8.207954833984376,-2.0672292709350586,0.226476788520813,0.1681085228919983
510,8.223762939453126,-0.0786447525024414,0.3688734769821167,0.1897326707839965
511,8.2394794921875,0.9809303283691406,0.4483247995376587,0.9460462927818298
512,8.255379150390626,1.4114294052124023,0.4737422466278076,1.4490340948104858
513,8.271218017578125,1.9705696105957031,0.5257667303085327,1.3698784112930298
514,8.287087158203125,2.127915382385254,0.6455349922180176,0.8675549030303955
515,8.30298681640625,1.983119010925293,0.656980037689209,0.1384194642305374
516,8.3188251953125,2.13930606842041,0.3992384672164917,-0.6074175834655762
517,8.3346943359375,2.8902740478515625,0.1360703706741333,-1.4166243076324463
518,8.350533203125,3.4635019302368164,-0.0647286176681518,-1.452018976211548
519,8.366341064453126,3.2323102951049805,-0.5080842971801758,-1.052182674407959
520,8.382210205078126,2.9657888412475586,-0.5044494867324829,-0.4992003440856933
521,8.398018310546876,2.9377670288085938,-0.8418087363243103,-0.6911148428916931
522,8.41391796875,3.1113710403442383,-1.4141138792037964,-1.02982497215271
523,8.429787109375,3.3648462295532227,-1.6948975324630735,-1.0899392366409302
524,8.445564697265626,3.0663633346557617,-1.8934335708618164,-1.220842361450195
525,8.461433837890626,2.3890256881713867,-1.8632792234420776,-1.3427982330322266
526,8.477150390625,1.4746932983398438,-1.7041691541671753,-1.3243132829666138
527,8.49308056640625,0.2242507934570312,-1.342685341835022,-1.3516085147857666
528,8.508919189453126,-0.9078130722045898,-1.032337665557861,-1.473610758781433
529,8.524758056640625,-1.4709453582763672,-0.7667078375816345,-1.7026559114456177
530,8.540596435546876,-1.738664150238037,-0.7663460969924927,-1.834359049797058
531,8.55640478515625,-1.5967473983764648,-0.7849860191345215,-1.8041378259658811
532,8.572273681640626,-1.4410696029663086,-0.9095603227615356,-1.311635971069336
533,8.588051513671875,-1.7116355895996094,-0.9404013156890868,-0.5924860239028931
534,8.6038291015625,-2.0284738540649414,-0.9047691822052002,0.0476024150848388
535,8.619728759765625,-2.331055164337158,-0.7284080982208252,0.4269199967384338
536,8.635506103515626,-2.635685920715332,-0.4023111462593078,0.0522942543029785
537,8.65128369140625,-3.2201132774353027,-0.1020016074180603,-0.4605620205402374
538,8.667092041015625,-3.9541072845458975,0.1542341709136963,-0.8571703433990479
539,8.682930419921876,-4.599542617797852,0.3805874586105346,-0.7294460535049438
540,8.698799560546876,-4.734819889068604,0.5532140731811523,-0.4740946590900421
541,8.71460791015625,-3.78995132446289,0.7357567548751831,-0.2173623442649841
542,8.7304462890625,-1.8075122833251955,0.8450567722320557,-0.0779498219490051
543,8.7463154296875,-0.0903654098510742,0.87713623046875,0.0212578773498535
544,8.76212353515625,0.9782018661499025,0.8621268272399902,-0.1803174614906311
545,8.777962158203126,2.082725524902344,0.9008166790008544,-0.3076210021972656
546,8.79373974609375,2.674290657043457,0.7797602415084839,0.0502893924713134
547,8.809669921875,2.573694229125977,0.7289438247680664,0.8477470874786377
548,8.825508544921876,1.525435447692871,0.6802988052368164,0.5097837448120117
549,8.841347412109375,1.568887710571289,0.3186737298965454,-0.613322377204895
550,8.857185791015626,3.491168975830078,0.2457200288772583,-0.6343914270401001
551,8.872994140625,5.573434829711914,0.6945481300354004,-0.02931410074234
552,8.888893798828125,6.388101577758789,1.0251131057739258,-0.2611929774284363
553,8.90470166015625,5.2406768798828125,1.4007858037948608,-1.0251554250717163
554,8.920510009765625,2.976373672485352,1.0998576879501345,-1.6154040098190308
555,8.93640966796875,2.016572952270508,0.4257217645645141,-1.806270718574524
556,8.952217529296876,2.604857444763184,-0.4449386596679687,-1.0880333185195925
557,8.968056396484375,2.724553108215332,-1.217855453491211,0.2099522352218628
558,8.983925537109375,1.7204084396362305,-1.6431565284729004,1.2040719985961914
559,8.9997333984375,0.551844596862793,-1.8161039352416992,1.6757798194885254
560,9.015602783203123,-0.3998365402221679,-1.7837331295013428,1.6460715532302856
561,9.031441162109376,-0.9145326614379884,-1.8792544603347776,1.4654762744903564
562,9.0473408203125,-0.9568691253662108,-1.791574478149414,0.8885596394538879
563,9.063149169921877,-0.9430217742919922,-1.675995111465454,0.1919695138931274
564,9.07895703125,-1.326242446899414,-1.56366229057312,-0.2243174314498901
565,9.094795654296876,-1.821596622467041,-1.3659931421279907,-0.3013869524002075
566,9.110603759765626,-2.434938907623291,-1.1476422548294067,-0.3078635334968567
567,9.12650341796875,-2.9255499839782715,-0.9117002487182616,-0.4744386076927185
568,9.142311767578123,-3.4260263442993164,-0.7777518630027771,-0.7806363701820374
569,9.158089111328126,-3.6474452018737793,-0.5282530188560486,-0.8770020008087158
570,9.17395849609375,-3.8585400581359854,-0.4535167217254638,-0.9039556384086608
571,9.189796875,-4.003070831298828,-0.2611116170883178,-0.5211618542671204
572,9.20557470703125,-4.246334075927734,-0.1293753385543823,-0.4271914958953857
573,9.221382568359376,-4.085925579071045,0.3133865594863891,-0.7407081723213196
574,9.23716015625,-3.668169021606445,0.7314772605895996,-0.9303607940673828
575,9.253029296875,-2.780020236968994,1.046236515045166,-0.8595602512359619
576,9.268806884765626,-1.902167797088623,1.2425589561462402,-0.3261109888553619
577,9.284645751953123,-0.7214822769165039,1.295919418334961,0.1122496128082275
578,9.300545166015626,0.940326690673828,1.270890235900879,0.3251366019248962
579,9.316384033203123,2.343358039855957,1.1225624084472656,0.6941584348678589
580,9.332222412109376,3.1310129165649414,0.9919512271881104,1.555023193359375
581,9.34803076171875,3.4485998153686523,0.7240815162658691,1.5834524631500244
582,9.363869140625,3.580199241638184,0.4762736558914184,0.8737818002700806
583,9.3797080078125,3.577598571777344,0.0824626684188842,0.0596619248390197
584,9.3954853515625,3.7481822967529297,0.1287872791290283,-0.4996941685676574
585,9.411385009765626,3.752676963806152,-0.0928140878677368,0.0252984762191772
586,9.427223876953123,3.622821807861328,-0.2877504825592041,0.6195396184921265
587,9.443093017578123,3.6234359741210938,-0.7798043489456177,0.0445142388343811
588,9.45890087890625,4.818265914916992,-1.2035139799118042,-1.1790521144866943
589,9.474708984375,5.849485397338867,-1.90302050113678,-2.1985137462615967
590,9.490639404296877,5.995545387268066,-2.372918128967285,-2.3351705074310303
591,9.5064169921875,4.440952301025391,-2.158799648284912,-1.3683409690856934
592,9.5222861328125,1.6116409301757812,-1.89941680431366,-0.4791157841682434
593,9.53812451171875,-1.3575105667114258,-1.7555551528930664,-0.0396400392055511
594,9.553932861328123,-3.393054485321045,-1.4369001388549805,-0.6689192056655884
595,9.5698017578125,-3.800632953643799,-1.2221741676330566,-1.687880516052246
596,9.585640380859376,-3.385814666748047,-1.1320340633392334,-2.026325464248657
597,9.6015400390625,-3.079768180847168,-1.1091554164886477,-1.709097146987915
598,9.617348388671877,-2.303039073944092,-0.9926111102104188,-0.5866959095001221
599,9.6331259765625,-1.583521842956543,-0.659088134765625,0.6262229084968567
600,9.648933837890626,-1.3875856399536133,-0.3294595181941986,1.0371840000152588
601,9.664772705078123,-2.242997169494629,-0.0015080571174621,0.532747745513916
602,9.680641845703123,-2.964254856109619,0.2389392852783203,-0.0418673157691955
603,9.696480224609376,-3.95556640625,0.2865124344825744,-0.388644814491272
604,9.712319091796877,-4.594991683959961,0.3743244409561157,-0.3503890037536621
605,9.728157470703126,-5.004718780517578,0.6150926351547241,-0.1238467097282409
606,9.743965576171876,-4.831539630889893,0.5129105448722839,0.1224620938301086
607,9.759804443359377,-3.6317315101623535,0.4726195335388183,0.1403893232345581
608,9.7756123046875,-1.5519189834594729,0.5845087170600891,0.0289015769958496
609,9.79142041015625,-0.0415000915527343,0.6670325398445129,0.30879807472229
610,9.807320068359376,0.8396387100219727,0.8109089136123657,0.1846857070922851
611,9.823067138671876,0.96551513671875,1.1579692363739014,-0.0817170143127441
612,9.838936279296876,1.7876806259155271,1.0949532985687256,0.111208438873291
613,9.854775146484377,2.9405879974365234,0.685645580291748,0.2633706331253052
614,9.870644287109377,3.7909164428710938,0.2871017456054687,0.0666100978851318
615,9.886482666015626,4.092562675476074,-0.3765431642532348,-0.1247280836105346
616,9.9023212890625,4.612583160400391,-0.6684238910675049,0.2217887639999389
617,9.918190673828123,5.664423942565918,-0.405311107635498,0.3889880180358886
618,9.934059814453123,6.237564086914063,-0.0309094190597534,0.6270097494125366
619,9.94983740234375,5.1382598876953125,0.0169782638549804,0.1599940061569214
620,9.96570654296875,3.5813121795654297,-0.4213349819183349,0.0427672863006591
621,9.981514404296876,2.911036491394043,-0.9890971183776855,0.3412497043609619
622,9.9973837890625,2.822585105895996,-1.3951131105422974,0.5080307722091675
623,10.013191650390626,1.8529081344604488,-1.8288127183914185,1.1870343685150146
624,10.02896923828125,0.4222383499145508,-2.2814652919769287,1.6459596157073977
625,10.044807861328126,-0.5105428695678711,-2.3899717330932617,1.37733793258667
626,10.060646728515623,-0.9778985977172852,-2.2170369625091557,0.947246789932251
627,10.076424072265626,-1.5884747505187988,-2.0790388584136963,0.7048813104629517
628,10.092232177734376,-1.854722499847412,-1.9018973112106323,0.2888983488082886
629,10.10807080078125,-1.7781758308410645,-1.632121443748474,-0.2880695462226867
630,10.123940185546877,-1.915766716003418,-1.351637840270996,-0.8301920294761658
631,10.139748046875,-1.6352882385253906,-0.9990776777267456,-1.311141848564148
632,10.1555869140625,-1.2928476333618164,-0.77940833568573,-1.2819643020629885
633,10.171394775390626,-1.47698974609375,-0.5851629972457886,-1.2996156215667725
634,10.187203125,-2.0302562713623047,-0.3970780372619629,-1.2827634811401367
635,10.20304150390625,-3.1655850410461426,-0.2833446264266968,-1.1926387548446655
636,10.21878857421875,-4.14885139465332,-0.3367024660110473,-1.2017892599105835
637,10.234688232421876,-4.39541482925415,-0.2820357084274292,-1.1815704107284546
638,10.25049658203125,-3.92214298248291,-0.3328123092651367,-0.7916032671928406
639,10.2663349609375,-4.092901706695557,-0.3145395517349243,-0.4843226075172424
640,10.2822041015625,-4.55466890335083,-0.2224165201187133,-0.206200897693634
641,10.29804296875,-4.5414652824401855,-0.3353770971298218,-0.4654619991779327
642,10.313912109375,-1.6022415161132812,-0.2077443599700927,-0.4745237529277801
643,10.329781005859376,1.8222198486328125,0.0935978889465332,0.0429045557975769
644,10.34558935546875,3.472865104675293,0.3988285064697265,1.056673526763916
645,10.361519287109376,3.326235771179199,0.7629858255386353,1.3656253814697266
646,10.37736083984375,2.6818408966064453,1.0553278923034668,1.1237189769744873
647,10.39319970703125,2.372981071472168,0.9851235151290894,1.076451063156128
648,10.409038330078126,2.914512634277344,0.6880909204483032,0.8653530478477478
649,10.424876708984376,3.871546745300293,0.3108142614364624,0.7160664796829224
650,10.4407763671875,5.181064605712891,0.2835175991058349,0.8885111808776855
651,10.456584716796876,5.259498596191406,0.039559006690979,1.1874403953552246
652,10.472514892578126,4.287110328674316,-0.3077274560928345,0.7323157787322998
653,10.488292236328125,2.550512313842773,-1.2568022012710571,-0.8941701650619507
654,10.504100341796876,2.272587776184082,-2.293763399124145,-2.2809009552001958
655,10.520000244140626,3.4946365356445312,-2.945087432861328,-1.7991459369659424
656,10.535838623046876,4.684748649597168,-3.8444647789001465,-1.1149837970733645
657,10.55173828125,4.429622650146484,-3.4577507972717285,-0.0514746904373168
658,10.5675771484375,1.9728507995605469,-3.0263009071350098,-0.0286678075790405
659,10.58341552734375,-0.9270038604736328,-2.542236328125,-0.540123462677002
660,10.599254150390625,-3.36167573928833,-2.022801637649536,-1.371658444404602
661,10.615062255859376,-4.039840221405029,-1.6610898971557615,-1.934933066368103
662,10.630931396484376,-3.719510078430176,-1.6511119604110718,-1.8896169662475584
663,10.646770263671876,-3.031475067138672,-1.6661529541015625,-1.5067126750946045
664,10.662639404296876,-2.024564743041992,-1.5062692165374756,-0.898348867893219
665,10.678508544921876,-1.4995946884155271,-1.094136357307434,-0.3251989781856537
666,10.694316650390626,-1.6273298263549805,-0.6696747541427612,-0.5551275014877319
667,10.7101552734375,-1.9644474983215328,-0.2581139802932739,-1.401339054107666
668,10.72590234375,-2.2978429794311523,0.0587928891181945,-2.070040225982666
669,10.74174072265625,-2.6742806434631348,0.042007565498352,-1.56687331199646
670,10.75748779296875,-3.391549587249756,-0.1385049819946289,-0.9720512628555298
671,10.773265380859376,-3.84801721572876,-0.2114111185073852,-0.1281795501708984
672,10.7891650390625,-3.814398765563965,-0.3772220611572265,0.3039268255233764
673,10.804973388671876,-2.686931610107422,-0.3620555400848388,0.394057035446167
674,10.82078125,-1.3393278121948242,-0.2325165271759033,0.388643741607666
675,10.8366201171875,-0.9617290496826172,0.1072509884834289,0.3954086303710937
676,10.8523974609375,-0.8250484466552734,0.4192327260971069,-0.0276224613189697
677,10.868297119140625,-0.0195913314819335,0.9272452592849731,-0.7428092956542969
678,10.88416650390625,0.5751867294311523,1.2748934030532837,-0.9185574650764464
679,10.89994384765625,2.0338382720947266,0.9885013103485109,0.1834393739700317
680,10.91578271484375,2.419432640075684,0.6470729112625122,0.8158328533172607
681,10.931560302734376,2.4789390563964844,0.0382683277130126,0.1954244375228881
682,10.9474599609375,3.313545227050781,-0.5440847277641296,-0.6400715708732605
683,10.963298583984376,4.756222724914551,-0.5656141042709351,-0.4271197915077209
684,10.979136962890625,5.550726890563965,-0.2351395487785339,0.4046636819839477
685,10.995006103515625,4.592987060546875,0.2542514204978943,0.8576984405517578
686,11.010844970703126,3.432734489440918,0.2765036225318908,-0.1697559356689453
687,11.02674462890625,3.2181215286254883,-0.1443110108375549,-0.9224093556404114
688,11.042552490234376,3.6785717010498047,-0.9681001901626588,-1.1236552000045776
689,11.058391357421876,3.801192283630371,-1.9199585914611816,-0.5363913178443909
690,11.074260498046876,4.05147647857666,-2.740421295166016,0.5142015218734741
691,11.090068359375,3.602447509765625,-3.067315101623535,1.476175308227539
692,11.105968017578125,2.279200553894043,-3.1575927734375,1.4630833864212036
693,11.1217763671875,1.0168609619140625,-2.829123020172119,1.1518323421478271
694,11.137553955078126,-0.1332912445068359,-2.4276444911956787,0.4206274747848511
695,11.15345361328125,-1.665389060974121,-1.859469413757324,-0.4083517789840698
696,11.169231201171876,-3.2562456130981445,-1.583845138549805,-0.7223726511001587
697,11.18506982421875,-3.855546474456787,-1.2948400974273682,-0.6457980275154114
698,11.2008779296875,-3.13454818725586,-1.0501437187194824,-0.3924979567527771
699,11.216685791015625,-2.219378471374512,-0.9079661965370178,-0.3312221765518188
700,11.23258544921875,-1.9317922592163088,-0.5982450246810913,-0.8806975483894348
701,11.248393798828126,-2.62900447845459,-0.3894060254096985,-1.27746319770813
702,11.264262939453126,-3.619571685791016,-0.3090558052062988,-1.350006937980652
703,11.280101318359376,-4.249813556671143,-0.3433559834957123,-0.9200295209884644
704,11.295940185546876,-4.263648986816406,-0.3891253471374511,-0.4918038249015808
705,11.31183984375,-4.603034973144531,-0.2526789307594299,-0.3635815978050232
706,11.3276171875,-4.9606709480285645,0.0173837542533874,-0.1536797881126403
707,11.34354736328125,-5.135659694671631,0.3352749347686767,0.4651601314544678
708,11.359477783203126,-5.005423069000244,0.2984721660614013,0.4466190338134765
709,11.37528564453125,-1.3890724182128906,0.192589521408081,0.2352935671806335
710,11.391155029296876,3.4052906036376958,0.1407896280288696,0.4400521516799927
711,11.406932373046876,5.341727256774902,0.2176179885864257,1.193932056427002
712,11.4228017578125,4.941629409790039,0.4807459712028503,1.888516306877136
713,11.4386708984375,3.801617622375488,0.8643075227737427,1.3949469327926636
714,11.45450927734375,2.7437944412231445,1.1087702512741089,0.7861642837524414
715,11.47037841796875,2.715343475341797,1.079417109489441,-0.6899726390838623
716,11.486156005859376,3.4892654418945312,0.7631527185440063,-1.5260945558547974
717,11.501994873046876,4.653121948242188,0.3394784927368164,-0.8209822177886963
718,11.517802734375,5.281624794006348,0.1030383110046386,-0.0962184965610504
719,11.53358056640625,5.199093818664551,-0.0784516334533691,-0.0806304216384887
720,11.549480224609376,3.2482309341430664,-0.4817746877670288,-0.7150105237960815
721,11.5652880859375,1.4092588424682615,-1.172971487045288,-1.3625543117523191
722,11.581096435546876,1.2651166915893557,-1.759512424468994,-1.4120550155639648
723,11.596934814453125,2.122519493103028,-2.5034310817718506,-1.0222152471542358
724,11.612773681640626,3.1245250701904297,-3.109525680541992,-0.6390626430511475
725,11.628642822265626,3.159252166748047,-3.2138819694519043,-0.3152072429656982
726,11.644450927734376,1.6037559509277344,-2.897327423095703,-0.4303121566772461
727,11.660320068359376,-1.1534299850463867,-2.4256813526153564,-0.9832689166069032
728,11.6761279296875,-3.44364070892334,-1.895520567893982,-1.5330991744995115
729,11.691936279296876,-4.555411338806152,-1.7348979711532593,-2.0641233921051025
730,11.707744140625,-4.312560558319092,-1.568369746208191,-1.7275021076202393
731,11.723521728515625,-2.81467866897583,-1.3827515840530396,-1.1348073482513428
732,11.739360595703126,-1.2562999725341797,-1.2064814567565918,-0.2779984772205353
733,11.755229736328126,-0.1078701019287109,-0.9546476006507874,0.3058897852897644
734,11.77103759765625,-1.2448081970214844,-0.6582290530204773,0.0567034482955932
735,11.7869677734375,-2.992815971374512,-0.4238058924674988,-0.8304440975189209
736,11.802776123046876,-4.805269718170166,-0.3267443180084228,-0.8865313529968262
737,11.81867578125,-5.6584954261779785,-0.4110674858093261,-0.4193519651889801
738,11.83451416015625,-5.745927333831787,-0.3131595849990845,0.2139524221420288
739,11.850322509765626,-5.754594326019287,-0.2502260208129883,0.79397052526474
740,11.86622216796875,-4.834725379943848,-0.0234630107879638,0.9637303948402404
741,11.88199951171875,-3.810533046722412,0.0555862188339233,0.0271918773651123
742,11.897899169921876,-0.6340131759643555,0.0549240112304687,-0.7660742998123169
743,11.91370751953125,1.3745698928833008,0.2335833311080932,-0.6940580010414124
744,11.929515625,1.4688405990600586,0.297844648361206,0.0149208307266235
745,11.945354248046876,0.3128232955932617,0.5571539402008057,0.5973862409591675
746,11.961162353515626,0.4223604202270508,0.7270164489746094,0.5045014023780823
747,11.977031494140626,2.258530616760254,0.428024411201477,0.0184016227722167
748,11.99283935546875,3.953415870666504,-0.2024151086807251,-0.6070061326026917
749,12.008616943359376,5.492362976074219,-0.4951969981193542,-1.389930009841919
750,12.02445556640625,6.765135765075684,-0.0782488584518432,-1.396077275276184
751,12.040263671875,6.386621475219727,0.8947598934173584,-1.6973838806152344
752,12.056102294921876,3.411995887756348,1.6012606620788574,-2.3663346767425537
753,12.071941162109376,1.0858192443847656,1.3476802110671997,-1.7332038879394531
754,12.0877490234375,1.5485553741455078,0.2722682952880859,-1.1519827842712402
755,12.103648681640625,4.075794219970703,-1.0975924730300903,-0.9168200492858888
756,12.119395751953125,6.133270263671875,-2.4512863159179688,0.1966913342475891
757,12.13526513671875,6.245321273803711,-3.275320053100586,2.471497774124145
758,12.151103759765626,4.755280494689941,-3.5428361892700195,3.2942395210266118
759,12.166911865234376,1.7117671966552734,-3.379104852676392,2.982529163360596
760,12.182658935546876,-0.5320615768432617,-2.9905776977539062,2.0044164657592773
761,12.19849755859375,-1.6648330688476562,-2.584972381591797,1.2483330965042114
762,12.214397216796876,-1.6940584182739258,-2.2067039012908936,0.634212076663971
763,12.230205078125,-1.339085578918457,-2.01270079612732,0.4063891172409057
764,12.246013427734376,-0.8664445877075195,-1.7585935592651367,0.3704622387886047
765,12.261851806640625,-0.899775505065918,-1.307137131690979,-0.1570913791656494
766,12.27766015625,-1.6332464218139648,-0.968275249004364,-0.4483559727668762
767,12.29349853515625,-2.6193642616271973,-0.53226637840271,-0.3402137160301208
768,12.30933740234375,-4.0888495445251465,-0.2784567475318908,-0.1069049835205078
769,12.325145263671876,-5.236677169799805,-0.1803043484687805,-0.3888000249862671
770,12.34095361328125,-5.868189811706543,-0.1495057344436645,-1.0547806024551392
771,12.35670068359375,-4.766757011413574,-0.3850625157356262,-1.434523344039917
772,12.3726611328125,-2.649867057800293,-0.3240824937820434,-1.053542137145996
773,12.38846923828125,-2.9978747367858887,-0.3267263770103454,-0.2462864816188812
774,12.404307861328125,-4.293901920318604,-0.2499749660491943,0.5897119045257568
775,12.42020751953125,-5.27108097076416,-0.1131258010864257,0.3834576606750488
776,12.43604638671875,-3.863125324249268,0.3755600452423095,0.1015010476112365
777,12.45191552734375,-0.1683464050292968,0.6488332748413086,-0.0098954439163208
778,12.46775390625,1.8789262771606443,0.7781243324279785,0.3615676760673523
779,12.483562255859376,2.960256576538086,0.939698338508606,1.2447726726531982
780,12.49943115234375,3.819340705871582,1.092760682106018,1.66280996799469
781,12.515239501953126,3.996319770812988,1.3037410974502563,1.4597012996673584
782,12.53116943359375,3.5931358337402344,1.3444279432296753,0.670700192451477
783,12.546947021484376,3.395832061767578,1.392490267753601,-0.0500949323177337
784,12.562785888671876,4.138675689697266,1.3531845808029177,-0.6973452568054199
785,12.578655029296876,4.74437141418457,1.3788386583328247,-0.799813449382782
786,12.5944326171875,4.771945953369141,0.9460206031799316,-1.1561238765716553
787,12.610271240234376,4.635678291320801,-0.2389873266220092,-2.618424415588379
788,12.626079345703126,4.81558895111084,-1.6243486404418943,-2.795019149780273
789,12.64188720703125,5.387324333190918,-3.06704330444336,-1.0318528413772583
790,12.657725830078125,5.665807723999023,-3.805575370788574,0.5928345918655396
791,12.673533935546876,3.4937658309936523,-3.8263421058654794,0.7973066568374634
792,12.68943359375,0.7738742828369141,-3.2529335021972656,-0.291891872882843
793,12.705272216796876,-2.2746362686157227,-2.54264760017395,-1.7411112785339355
794,12.72108056640625,-4.3407158851623535,-2.1087067127227783,-2.139103889465332
795,12.736949462890625,-4.654948711395264,-1.912433624267578,-1.810497522354126
796,12.7527578125,-3.9309568405151367,-1.73514986038208,-1.199658989906311
797,12.768657470703126,-2.504660129547119,-1.6952073574066162,-0.6466042399406433
798,12.784526611328126,-0.7630128860473633,-1.4390333890914917,-0.121505320072174
799,12.800364990234376,-0.4058160781860351,-1.20953106880188,-0.1321607232093811
800,12.81629541015625,-0.691218376159668,-0.740044116973877,-0.5963992476463318
801,12.8321337890625,-2.0778613090515137,-0.4249889254570007,-0.9395552277565002
802,12.848003173828126,-4.004937648773193,-0.1287682056427002,-0.6900739073753357
803,12.863780517578125,-5.386385440826416,-0.0917688608169555,-0.396320104598999
804,12.8795888671875,-5.439774990081787,-0.1595215797424316,-0.3614795804023742
805,12.895457763671876,-4.859447002410889,-0.3651812076568603,-0.1199719011783599
806,12.911296630859376,-4.063466548919678,-0.4776543378829956,0.0337082147598266
807,12.927196044921876,-2.775270462036133,-0.2532885074615478,-0.1104112267494201
808,12.943004150390625,-2.3988261222839355,0.1765339374542236,-0.4501188397407532
809,12.958751220703125,-1.783841609954834,0.7139419317245483,-1.0511574745178225
810,12.974681640625,-2.0355052947998047,0.9598056077957152,-1.4478645324707031
811,12.990459228515626,-1.047698974609375,1.3036229610443115,-1.261538863182068
812,13.006328369140626,0.5826845169067383,1.1341631412506104,-0.8890491724014282
813,13.022166748046876,3.2762250900268555,0.6720072031021118,0.0990752577781677
814,13.038005615234376,5.452199935913086,-0.0849149227142334,0.9184962511062622
815,13.053874755859376,6.043066024780273,-0.534589409828186,1.2384850978851318
816,13.069713134765625,6.887126922607422,-0.5780397057533264,0.6733977794647217
817,13.085582275390625,8.054780006408691,0.282321572303772,0.6544796228408813
818,13.101421142578126,7.707685470581055,1.6276706457138062,1.5831011533737185
819,13.11722900390625,4.802552223205566,2.41054916381836,0.044845700263977
820,13.133159423828126,1.2187433242797852,2.016453742980957,-2.707992553710937
821,13.14893701171875,0.5322504043579102,0.2714607715606689,-2.710496425628662
822,13.164775390625,2.2185211181640625,-1.630495309829712,-0.5197080969810486
823,13.1806142578125,3.4983673095703125,-3.346566677093506,2.0317041873931885
824,13.1963916015625,3.607157707214356,-3.9100089073181152,3.3754382133483887
825,13.2122607421875,2.253141403198242,-4.0424323081970215,2.9697153568267822
826,13.228038330078125,0.457127571105957,-3.588762760162353,1.953369140625
827,13.243907470703125,-1.8225550651550293,-3.0745625495910645,1.0210176706314087
828,13.259746337890626,-2.6569323539733887,-2.52522873878479,0.8441238403320312
829,13.27555419921875,-2.4724135398864746,-1.973325252532959,0.4787877798080444
830,13.291423583984376,-1.7323455810546875,-1.352644681930542,-0.273245096206665
831,13.307200927734376,-1.3502731323242188,-0.9082290530204772,-1.0343376398086548
832,13.3231005859375,-1.7657008171081543,-0.680072009563446,-1.3915085792541504
833,13.338908935546876,-2.837226390838623,-0.578673243522644,-1.3331228494644165
834,13.35480859375,-4.214415073394775,-0.6983237266540527,-0.8506092429161072
835,13.370708251953126,-4.889407157897949,-0.7674218416213989,-0.3114935159683227
836,13.386455322265626,-4.452789306640625,-0.6655486822128296,0.3618813753128052
837,13.40232421875,-4.272767066955566,-0.589055061340332,0.6654597520828247
838,13.418162841796876,-4.529324054718018,-0.4191081523895263,0.687995433807373
839,13.43397119140625,-5.268405914306641,-0.0915374755859375,0.4042887687683105
840,13.449870849609376,-5.669751167297363,0.3157203197479248,-0.0020185708999633
841,13.465709228515625,-5.184430122375488,0.2770648002624511,-0.2790271043777466
842,13.48157861328125,-2.556362628936768,0.2252396345138549,-0.3716731965541839
843,13.497417236328126,1.1443157196044922,0.2941529750823974,-0.1445670127868652
844,13.51322509765625,3.5573959350585938,0.4129590988159179,0.9403274655342102
845,13.529124755859376,4.300599098205566,0.8176748156547546,1.5200175046920776
846,13.54490234375,4.147843360900879,1.133434772491455,0.8902835249900818
847,13.56068017578125,4.211106300354004,1.48923659324646,-0.6911299824714661
848,13.57648828125,4.656885147094727,1.5446934700012207,-1.2449300289154053
849,13.592296142578125,5.404026031494141,1.1644444465637207,-0.9652266502380372
850,13.60819580078125,6.858700752258301,0.6499266624450684,-0.5323539972305298
851,13.6239736328125,7.4482269287109375,0.3787393569946289,-0.3895711898803711
852,13.639842529296876,6.226431846618652,0.1126661300659179,-0.7206723093986511
853,13.655681396484376,3.60201358795166,-0.2244486808776855,-1.6065607070922852
854,13.67152001953125,1.090205192565918,-1.174405813217163,-2.530437469482422
855,13.6873583984375,0.4452390670776367,-2.275985717773437,-2.120147466659546
856,13.703135986328125,0.4363203048706054,-3.1811156272888184,-1.4033474922180176
857,13.71906640625,1.1767940521240234,-3.9407567977905273,-0.3384731411933899
858,13.734935546875,1.8638486862182615,-3.8121490478515625,-0.0842121839523315
859,13.750713134765626,1.3275747299194336,-3.203195333480835,-0.8306816816329956
860,13.766551513671876,-0.5516204833984375,-2.3287415504455566,-1.3520872592926023
861,13.782603759765625,-2.5823397636413574,-1.6155776977539062,-1.6897101402282717
862,13.798472900390625,-3.648993015289306,-1.3970141410827637,-1.4027273654937744
863,13.814311767578126,-3.4216675758361816,-1.0701377391815186,-1.267319679260254
864,13.83011962890625,-3.142362594604492,-1.003747820854187,-0.8682267069816589
865,13.84598876953125,-1.751665115356445,-0.7603824138641357,0.0924941301345825
866,13.86182763671875,-0.544464111328125,-0.6161512136459351,0.6075276136398315
867,13.877727294921876,-0.4176769256591797,-0.3081189393997192,0.2848062515258789
868,13.89353515625,-1.7732200622558594,-0.0873101949691772,-0.1857409477233886
869,13.909343505859376,-3.376642227172852,-0.0012065768241882,-0.350197434425354
870,13.925181884765625,-5.290050983428955,-0.0887602567672729,-0.4927740693092346
871,13.941020751953126,-6.051673889160156,-0.1795950531959533,-0.2786847352981567
872,13.95692041015625,-6.074302673339844,-0.3444089293479919,0.0393073558807373
873,13.972759033203126,-5.811844825744629,-0.3891264200210571,-0.055792212486267
874,13.98853662109375,-4.47238826751709,-0.2572696805000305,-0.2020500898361206
875,14.00440576171875,-2.06795597076416,-0.0893301963806152,-0.539393424987793
876,14.0202138671875,0.719965934753418,0.1880805492401123,-0.7992401123046875
877,14.0360830078125,2.9796743392944336,0.5373060703277588,-0.7757453918457031
878,14.05192138671875,3.4702224731445312,0.9734702110290528,-0.0255022048950195
879,14.06766845703125,2.558818817138672,1.1546852588653564,0.2463676929473877
880,14.083568115234376,1.8066043853759768,0.8564485311508179,-0.2289342880249023
881,14.099345947265626,3.182580947875977,0.0877155065536499,-0.9971805214881896
882,14.11524560546875,6.289394378662109,-0.4952354431152344,-1.1127821207046509
883,14.131053466796876,9.130536079406738,0.0879479646682739,-0.0895631313323974
884,14.1469228515625,8.662824630737305,1.2142837047576904,-0.221893310546875
885,14.1627919921875,4.958688735961914,1.9839212894439695,-1.453938126564026
886,14.1785390625,1.1745233535766602,1.771365761756897,-2.105701208114624
887,14.19446923828125,-0.1586666107177734,0.2948310375213623,-1.4125176668167114
888,14.21024658203125,0.9588127136230468,-1.7382471561431885,0.2752361297607422
889,14.22608544921875,2.110933303833008,-3.8536901473999023,2.811173677444458
890,14.241893310546876,3.70904541015625,-4.46312141418457,5.145030975341797
891,14.25770166015625,3.4223852157592773,-4.586516857147217,5.067322731018066
892,14.273692626953125,2.0336809158325195,-4.1642045974731445,3.6051275730133057
893,14.2895009765625,0.0851659774780273,-3.1877400875091557,2.152629137039185
894,14.305278564453126,-2.0150389671325684,-2.199216842651367,0.6912121772766113
895,14.321147705078126,-3.1748805046081543,-1.239609718322754,-1.5332387685775757
896,14.33692529296875,-3.0692853927612305,-0.5216560959815979,-2.8256685733795166
897,14.352824951171876,-2.093048572540283,-0.2450618147850036,-3.230006694793701
898,14.3686328125,-1.0965843200683594,-0.1737294197082519,-3.214099168777466
899,14.384441162109376,-1.0787200927734375,-0.2803022265434265,-2.779176950454712
900,14.400310302734376,-1.5840396881103516,-0.3673759698867798,-2.045823574066162
901,14.4161181640625,-2.3278307914733887,-0.5008758306503296,-1.7521334886550903
902,14.4320791015625,-3.575221538543701,-0.4260257482528686,-2.003307342529297
903,14.447856689453126,-4.749836444854736,-0.3244562745094299,-1.7078317403793335
904,14.463725830078126,-6.084094047546387,-0.0960677862167358,-1.0556652545928955
905,14.47962548828125,-6.939949989318848,0.0364035367965698,-0.7007499933242798
906,14.495525146484376,-6.992274284362793,0.2075272798538208,-0.2548377513885498
907,14.5114248046875,-6.269207954406738,0.2265335321426391,-0.1762619018554687
908,14.52726318359375,-4.0464582443237305,0.2845298051834106,0.2887784242630005
909,14.54310205078125,-1.022502899169922,-0.0104404687881469,0.3639569282531738
910,14.559001708984376,2.749008178710937,0.0570547580718994,0.6181498169898987
911,14.57484033203125,4.581393241882324,0.287312388420105,1.2921305894851685
912,14.590617919921876,4.5303802490234375,0.4602081775665283,1.530876874923706
913,14.60642578125,4.289481163024902,0.8407204151153564,1.0873732566833496
914,14.6222646484375,4.38034725189209,0.9779633283615112,0.0536199808120727
915,14.63810302734375,5.459039688110352,1.0411770343780518,-1.219763994216919
916,14.653911376953126,7.216753959655762,1.0079624652862549,-1.78889262676239
917,14.66981103515625,7.825594902038574,1.1525628566741943,-1.6822408437728882
918,14.68558837890625,6.576744079589844,0.7337526082992554,-1.4261999130249023
919,14.701457763671876,4.310836791992188,0.233536958694458,-1.3719708919525146
920,14.717326904296876,1.549910545349121,-0.75372314453125,-2.2993857860565186
921,14.7331044921875,0.9372425079345704,-1.8726806640625,-2.014211893081665
922,14.748943115234376,1.591935157775879,-2.891533374786377,-1.2112677097320557
923,14.764720703125,1.3444461822509766,-3.592978239059448,-0.5312715768814087
924,14.780620361328126,0.8261518478393555,-3.5483200550079346,-0.3384403586387634
925,14.796489501953126,-0.0769357681274414,-2.977419853210449,-0.3386150002479553
926,14.81229736328125,-1.743417263031006,-2.017457962036133,-1.1364079713821411
927,14.828166748046876,-3.35969877243042,-1.3724126815795898,-1.8178147077560425
928,14.84400537109375,-4.440642356872559,-1.363691806793213,-1.8277809619903564
929,14.8598134765625,-4.051897048950195,-1.4271742105484009,-1.4337670803070068
930,14.8756826171875,-2.268377780914306,-1.636998176574707,-0.5330668091773987
931,14.891490478515625,0.1767854690551757,-1.5743857622146606,0.2392878532409668
932,14.90735986328125,0.6294088363647461,-1.3230502605438232,0.6744400262832642
933,14.923198486328126,-0.7149858474731445,-0.9521475434303284,0.691643238067627
934,14.939036865234376,-2.595844268798828,-0.6428004503250122,0.5190882682800293
935,14.9549365234375,-3.969285488128662,-0.5684062838554382,0.2116854786872863
936,14.970744873046876,-4.599987983703613,-0.6354881525039673,0.2845679521560669
937,14.98664453125,-3.978209972381592,-0.7252241969108582,1.0448282957077026
938,15.002422119140626,-2.837130069732666,-0.6746740341186523,1.624076008796692
939,15.018291259765626,-2.681697368621826,-0.4797173738479614,1.237018585205078
940,15.03419091796875,-3.497887134552002,-0.0827261209487915,0.0849130749702453
941,15.049998779296876,-4.1384053230285645,0.3813889026641845,-1.1390867233276367
942,15.065867919921876,-2.3852667808532715,0.4902408123016357,-0.6773593425750732
943,15.081706787109376,0.4855413436889648,0.5660239458084106,0.3050456047058105
944,15.097545166015625,2.882828712463379,0.7200577259063721,0.5174144506454468
945,15.1134755859375,3.458376884460449,0.7296704053878784,0.1198439598083496
946,15.12928369140625,2.4876937866210938,0.6545670032501221,-0.3620859384536743
947,15.145183349609376,2.293344497680664,0.5313633680343628,-1.8872458934783936
948,15.16102197265625,3.4963064193725586,0.2501472234725952,-2.300909996032715
949,15.1768603515625,6.320876121520996,0.3663061857223511,-1.4149686098098757
950,15.1927294921875,8.356122016906738,1.0258049964904783,-0.2328957319259643
951,15.208537841796876,7.565452575683594,2.0825343132019043,0.3097094297409057
952,15.2244375,3.963979721069336,2.1202216148376465,-0.7318103313446045
953,15.24024560546875,2.069727897644043,1.0332345962524414,-0.7126121520996094
954,15.256053466796876,3.0283355712890625,-0.5196253061294556,-0.1723051071166992
955,15.271922607421876,2.9751148223876958,-1.7755615711212158,1.1261175870895386
956,15.287822265625,1.1199665069580078,-2.6306886672973637,2.890432357788086
957,15.30375244140625,-0.3063478469848633,-3.2033252716064453,3.952343463897705
958,15.31962158203125,-1.0396709442138672,-3.4814953804016118,4.169701099395752
959,15.335429931640626,-1.1800260543823242,-3.508583307266236,3.831848621368408
960,15.351360107421876,-1.4950838088989258,-3.4023871421813965,2.712389707565308
961,15.367137451171876,-1.7374053001403809,-3.287235736846924,1.3536620140075684
962,15.3830068359375,-1.5490198135375977,-2.9868311882019043,4.08291816711e-05
963,15.398845458984376,-0.9990253448486328,-2.4503273963928223,-1.0663036108016968
964,15.4146533203125,-0.6223716735839844,-1.548435926437378,-1.8850280046463013
965,15.430552978515625,-1.095026969909668,-0.695135235786438,-1.8814963102340696
966,15.446391845703126,-1.8613648414611816,-0.189893901348114,-1.7986655235290527
967,15.4622138671875,-2.483782768249512,0.0476474165916442,-1.986832618713379
968,15.47805224609375,-2.9766759872436523,0.1422414779663086,-2.4271042346954346
969,15.493921630859376,-3.760510921478272,0.1981735229492187,-2.7358510494232178
970,15.509790771484376,-4.487126350402832,0.1187937259674072,-2.324833631515503
971,15.5255986328125,-4.289453983306885,0.0835251808166503,-1.199981927871704
972,15.541498291015625,-4.642334938049316,-0.0558748245239257,-0.019636794924736
973,15.557306640625,-4.34410572052002,-0.1059740781784057,0.9301174283027648
974,15.57317578125,-4.271512985229492,-0.2516504526138305,1.1966445446014404
975,15.589044677734377,-2.2927303314208984,-0.1580538749694824,1.5296595096588137
976,15.604791748046877,0.9649944305419922,-0.0633528232574462,1.822735071182251
977,15.620660888671877,3.785532951354981,0.0803890228271484,1.2580525875091553
978,15.63646923828125,5.378399848937988,0.3705670833587646,0.3781129419803619
979,15.65227734375,5.133813858032227,0.8633161783218384,0.3894408345222473
980,15.668115966796876,3.549581527709961,1.344744086265564,0.1946393251419067
981,15.6838935546875,2.804530143737793,1.5347133874893188,-0.967147707939148
982,15.699793212890626,3.471312522888184,1.2700037956237793,-2.1896629333496094
983,15.71557080078125,5.142121315002441,1.1865020990371704,-2.2485220432281494
984,15.731409423828126,5.581353187561035,1.0596257448196411,-1.975236654281616
985,15.74730908203125,4.376294136047363,0.7220934629440308,-2.073150873184204
986,15.763116943359377,2.7540197372436523,-0.1625052690505981,-2.2882649898529053
987,15.7790166015625,1.7178564071655271,-1.4481167793273926,-1.864074468612671
988,15.79485546875,1.2383975982666016,-2.647793769836426,-0.9934954643249512
989,15.810663330078125,1.682424545288086,-3.30089807510376,0.0297424048185348
990,15.82653271484375,2.1439123153686523,-3.4197916984558105,0.9342623353004456
991,15.842371337890626,1.5573139190673828,-3.11380672454834,1.0853748321533203
992,15.85827099609375,-0.1495141983032226,-2.3491978645324707,0.0654456987977027
993,15.874078857421877,-1.6640081405639648,-1.555200219154358,-1.9800759553909304
994,15.8899482421875,-2.670737743377685,-1.0553593635559082,-2.89011812210083
995,15.9058173828125,-2.398077964782715,-1.0793852806091309,-1.7455894947052002
996,15.921594970703126,-1.671222686767578,-1.2858052253723145,-0.722027599811554
997,15.93749462890625,-1.546003341674805,-1.2270227670669556,-0.0081863030791282
998,15.953302734375,-1.6503181457519531,-1.0401496887207031,0.0528352707624435
999,15.96911083984375,-1.9188718795776367,-0.6593524217605591,-0.2637563943862915
1000,15.985010498046876,-2.368802547454834,-0.5852915644645691,-0.4039457142353058
1001,16.000818359375,-3.2119140625,-0.440711498260498,0.0343647003173828
1002,16.016626708984376,-4.126723766326904,-0.4470111131668091,0.3263165354728699
1003,16.0324345703125,-4.637368679046631,-0.468437910079956,0.3785657882690429
1004,16.048242919921876,-4.594405651092529,-0.4457330703735351,0.570483922958374
1005,16.06411181640625,-4.655551433563232,-0.3738541603088379,0.9479339718818665
1006,16.079920166015626,-3.593645572662353,0.0235316753387451,-0.1378669738769531
1007,16.09581982421875,-2.816056728363037,0.8172891139984131,-1.9088993072509768
1008,16.111627685546875,-1.464900016784668,0.7384265661239624,-1.680626630783081
1009,16.12743603515625,1.0469694137573242,0.7216882705688477,-0.0365607738494873
1010,16.143335693359376,3.087157249450684,0.5156358480453491,1.49151873588562
1011,16.159174072265625,3.48770523071289,0.7496744394302368,1.5312888622283936
1012,16.175043212890625,2.0767030715942383,0.6738995313644409,0.6933369636535645
1013,16.190882080078126,1.400712013244629,0.1953593492507934,-0.1662830114364624
1014,16.206720458984375,3.3244762420654297,-0.4377892017364502,-0.7152150273323059
1015,16.222559326171876,6.221344947814941,-0.3680248260498047,-0.3771719932556152
1016,16.238336669921875,7.199680328369141,0.2440437078475952,-0.0554356575012207
1017,16.25426708984375,5.961390495300293,1.4371830224990845,-0.0233175754547119
1018,16.2700751953125,3.418532371520996,1.6760200262069702,-0.957178831100464
1019,16.285974853515626,1.3325223922729492,0.903927445411682,-2.028847932815552
1020,16.301843994140626,1.1730928421020508,-0.6296288967132568,-1.4582935571670532
1021,16.31765185546875,2.3213348388671875,-2.1950716972351074,0.1132161617279052
1022,16.333521240234376,3.99209213256836,-3.184000015258789,2.4915356636047363
1023,16.349390380859376,3.934371948242188,-3.465441465377808,3.42756462097168
1024,16.365259521484376,2.5192108154296875,-3.0314741134643555,2.1490578651428223
1025,16.381128662109376,0.2088842391967773,-2.2400357723236084,0.2472549676895141
1026,16.39690625,-2.240651607513428,-1.4916017055511477,-0.4174383878707886
1027,16.412683837890626,-3.154046058654785,-1.340463638305664,-0.0641469955444336
1028,16.4285224609375,-2.564415454864502,-1.2012276649475098,-0.1095170378684997
1029,16.444422119140626,-2.0985565185546875,-1.1016817092895508,-0.3758732080459595
1030,16.460291015625,-1.7439608573913574,-1.0445897579193115,-0.2385665774345398
1031,16.47616015625,-1.6141085624694824,-0.9479604959487916,-0.2177813053131103
1032,16.492029541015626,-2.0911684036254883,-0.7227663993835449,-0.889376163482666
1033,16.507837646484376,-3.3603949546813965,-0.5570462942123413,-1.1987245082855225
1034,16.523615234375,-5.01227617263794,-0.5995352268218994,-0.8714786171913147
1035,16.539484375,-5.822770118713379,-0.8648819327354431,-0.4858787655830383
1036,16.555353271484375,-4.445374488830566,-1.0477542877197266,0.0270611643791198
1037,16.5712529296875,-2.770279884338379,-1.126256227493286,0.4505068659782409
1038,16.5871220703125,-2.3204846382141118,-0.8582255840301514,0.520868718624115
1039,16.602930419921876,-3.042898178100586,-0.3679094314575195,0.1994256973266601
1040,16.61879931640625,-4.004694938659668,-0.0497124195098876,-0.2810264229774475
1041,16.634607666015626,-3.13917875289917,0.4134207963943481,-0.4834936857223511
1042,16.6504462890625,-0.7866039276123047,0.5198445320129395,-0.075737863779068
1043,16.666284912109376,2.6033010482788086,0.5305150747299194,1.1552026271820068
1044,16.682154052734376,4.418143272399902,0.5566357374191284,2.081094980239868
1045,16.698023193359376,4.200989723205566,0.8498423099517822,1.6640468835830688
1046,16.7138310546875,2.60822868347168,1.0700896978378296,0.2813953757286072
1047,16.729730712890625,1.622812271118164,1.0770615339279177,-1.1237642765045166
1048,16.745569580078126,2.086997032165528,0.917722225189209,-1.1912137269973757
1049,16.76134716796875,3.60335636138916,0.8572685718536377,0.0374347493052482
1050,16.77721630859375,5.290487289428711,0.779093861579895,0.690442681312561
1051,16.793024169921875,5.784720420837402,0.5423647165298462,0.3230330348014831
1052,16.808923828125,4.473289489746094,-0.0907353162765502,-1.189909815788269
1053,16.82470166015625,3.2624549865722656,-1.2518035173416138,-2.009791612625122
1054,16.840509765625,3.506617546081543,-2.144526958465576,-1.1441972255706787
1055,16.856348388671876,4.079503059387207,-2.745396852493286,-0.1853529810905456
1056,16.872156494140626,3.734518051147461,-2.942762851715088,0.1022291183471679
1057,16.88808642578125,2.106553077697754,-2.727829933166504,-0.1030213981866836
1058,16.903864013671875,0.2298727035522461,-2.156190872192383,-1.0691649913787842
1059,16.919702880859376,-1.4783992767333984,-1.5167911052703855,-2.009509801864624
1060,16.9355107421875,-2.794435501098633,-1.0103309154510498,-2.320183515548706
1061,16.951349609375,-2.574089527130127,-0.9287524223327636,-2.121339797973633
1062,16.967249267578126,-1.2656030654907229,-1.031810998916626,-1.9184430837631223
1063,16.983087890625,0.2173709869384765,-1.0324639081954956,-1.3139450550079346
1064,16.998865478515626,1.0050535202026367,-0.9994327425956726,-0.4741418063640594
1065,17.01476513671875,0.1779365539550781,-0.7985839247703552,-0.0096999108791351
1066,17.030572998046875,-1.6069612503051758,-0.5328964591026306,-0.0173383951187133
1067,17.046442138671875,-3.291464805603028,-0.3238279819488525,-0.3107582628726959
1068,17.06225048828125,-4.631475448608398,-0.2326275110244751,-0.0484517812728881
1069,17.0780888671875,-5.301799774169922,-0.2691140174865722,0.308247447013855
1070,17.093958251953126,-5.68818998336792,-0.297303557395935,0.6297865509986877
1071,17.109766357421876,-5.614719867706299,-0.4169574975967407,0.5728726983070374
1072,17.125666015625,-4.82418966293335,-0.4183617830276489,0.3045966625213623
1073,17.14147412109375,-3.904146194458008,-0.1241834163665771,0.055030345916748
1074,17.15734326171875,-2.8469958305358887,0.2303222417831421,0.3060792088508606
1075,17.173242919921876,-1.1381683349609375,0.5373953580856323,0.7795293927192688
1076,17.1890205078125,0.5183534622192383,0.6511000394821167,0.5487275719642639
1077,17.204920166015626,1.8384876251220703,0.6855770349502563,0.6214234828948975
1078,17.2207587890625,2.58437442779541,0.903194785118103,0.7380664944648743
1079,17.23659716796875,1.9324350357055664,0.9237685203552246,0.2047746777534485
1080,17.252466552734376,1.4016036987304688,0.6063199043273926,-0.6317378878593445
1081,17.268243896484375,2.606143951416016,-0.0500557422637939,-0.4215865135192871
1082,17.284082763671876,5.879701614379883,-0.6802830696105957,0.1360251903533935
1083,17.299860107421875,8.86297607421875,-0.1887389421463012,0.4533984065055847
1084,17.315698974609376,8.055508613586426,0.6166695356369019,0.9691269397735596
1085,17.3315986328125,4.561400413513184,1.28054940700531,0.5788851976394653
1086,17.347406494140625,1.6551876068115234,1.2228699922561646,-0.9980030059814452
1087,17.3633369140625,0.6898565292358398,0.2540382146835327,-1.601142168045044
1088,17.379175537109376,2.236854553222656,-0.8661376237869263,-1.0791171789169312
1089,17.394983642578126,2.629389762878418,-1.836628079414368,0.2914631366729736
1090,17.4108525390625,1.899123191833496,-2.577918529510498,1.1470985412597656
1091,17.426599609375,1.384922981262207,-2.7513551712036133,1.3310309648513794
1092,17.44246875,0.379246711730957,-2.739302158355713,1.1661919355392456
1093,17.458277099609376,-1.1699285507202148,-2.5308620929718018,0.7406003475189209
1094,17.47414599609375,-2.4222283363342285,-2.3639163970947266,0.3023861646652221
1095,17.49001513671875,-2.564431667327881,-2.1836700439453125,0.1053102016448974
1096,17.505823486328126,-1.4814319610595703,-1.8392449617385864,0.4336468577384949
1097,17.52172314453125,-0.367340087890625,-1.3040260076522827,0.1032922267913818
1098,17.53753125,-0.0453557968139648,-0.9605494737625122,-0.6148056983947754
1099,17.55333935546875,-0.7986335754394531,-0.5820218920707703,-1.4112043380737305
1100,17.56926953125,-2.3465404510498047,-0.3489118814468384,-1.5203973054885864
1101,17.585047119140626,-4.087039470672607,-0.2670224905014038,-1.2759469747543335
1102,17.6008857421875,-4.709846496582031,-0.2603634595870971,-1.0534889698028564
1103,17.61672412109375,-4.725556373596191,-0.2991379499435425,-0.6399279832839966
1104,17.632532470703126,-4.285485744476318,-0.350117564201355,-0.3178546726703644
1105,17.64843212890625,-4.033061981201172,-0.3973077535629272,-0.1050284504890441
1106,17.664240234375,-4.134705543518066,-0.2601609230041504,0.2231685519218444
1107,17.680109375,-4.716530799865723,0.0163865089416503,0.2232731580734253
1108,17.695917236328125,-4.206781387329102,0.2992953062057495,-0.1342914402484893
1109,17.7117255859375,-1.8215217590332031,0.4942123889923095,0.2781429290771484
1110,17.727625244140626,1.976593017578125,0.4186576604843139,1.2099566459655762
1111,17.743463623046875,3.9304275512695312,0.441520094871521,2.360069990158081
1112,17.759332763671875,3.447944641113281,0.6568810939788818,1.7400527000427246
1113,17.77514111328125,2.301410675048828,0.9066444635391236,0.2822496592998504
1114,17.79094921875,2.7172155380249023,0.9385627508163452,-0.8941636085510254
1115,17.806818359375,4.457897186279297,0.7145322561264038,-1.4673737287521362
1116,17.822656982421876,6.061629295349121,0.8471980094909668,-1.3343297243118286
1117,17.83852587890625,6.43354606628418,0.973003387451172,-0.944994866847992
1118,17.854425537109375,5.0624589920043945,0.8760191202163696,-1.3383067846298218
1119,17.87035595703125,2.993638038635254,0.1818158626556396,-2.3634042739868164
1120,17.886224853515625,2.1761627197265625,-1.2490551471710205,-2.2376441955566406
1121,17.902033203125,3.0768308639526367,-2.5485424995422363,-1.057867407798767
1122,17.91796337890625,3.678522109985352,-3.163600444793701,-0.0367370545864105
1123,17.93374072265625,3.170053482055664,-3.2405362129211426,0.5494745969772339
1124,17.94960986328125,1.5986328125,-2.771024703979492,-0.2104907184839248
1125,17.965509521484375,-0.3901481628417969,-2.11961030960083,-1.1168181896209717
1126,17.981348388671876,-2.5094728469848637,-1.5165923833847046,-1.8858542442321775
1127,17.997248046875,-3.951140403747559,-1.1114858388900757,-2.451505661010742
1128,18.013086669921876,-3.278799057006836,-1.152001142501831,-2.1609349250793457
1129,18.028894775390626,-1.6172142028808594,-1.3024494647979736,-1.4315221309661863
1130,18.04479443359375,0.4564428329467773,-1.4065574407577517,-0.632857620716095
1131,18.060572021484376,2.089902877807617,-1.18598210811615,-0.1686341166496276
1132,18.076471435546875,0.4206581115722656,-0.7547261714935303,0.0216237008571624
1133,18.092310302734376,-1.6020746231079102,-0.4595301747322082,-0.0388775467872619
1134,18.1081181640625,-3.468472003936768,-0.2232366800308227,-0.2215915918350219
1135,18.12395703125,-4.540727615356445,-0.1264896392822265,-0.2104742527008056
1136,18.139764892578125,-4.927881717681885,-0.259658932685852,0.0813971757888794
1137,18.15566455078125,-4.565741062164307,-0.2142168283462524,0.3811971545219421
1138,18.17150341796875,-4.3356242179870605,-0.2210776805877685,0.6000527739524841
1139,18.187281005859376,-4.051525592803955,-0.1197525262832641,0.7959825992584229
1140,18.203150146484376,-4.193509101867676,0.1160203218460083,0.0920572280883789
1141,18.2189580078125,-3.970661163330078,0.6216787099838257,-0.6563671827316284
1142,18.23476635742188,-3.1044750213623047,0.8512603044509888,-1.2999781370162964
1143,18.2505439453125,-0.623723030090332,0.9282575845718384,-1.4902652502059937
1144,18.266382568359376,2.2280941009521484,1.1009544134140017,-0.9557927846908568
1145,18.28225146484375,3.05898380279541,1.4532434940338137,0.3268537521362304
1146,18.29805981445313,1.8262939453125,1.8867558240890503,1.111881971359253
1147,18.313989990234376,1.3460073471069336,2.008056163787842,0.014973759651184
1148,18.32982861328125,2.737126350402832,1.7673627138137815,-1.0620023012161257
1149,18.34563671875,5.00803279876709,1.167341947555542,-1.142370343208313
1150,18.36144482421875,7.708457946777344,0.9968019723892212,-1.0484102964401243
1151,18.3772529296875,7.913334846496582,1.1946662664413452,-0.0763990879058837
1152,18.393152587890626,5.924077033996582,0.6859205961227417,-0.1458606719970703
1153,18.4089912109375,4.068550109863281,-0.3998363018035888,-0.5091369152069092
1154,18.42479931640625,4.303229331970215,-1.6231696605682373,-0.6070376634597778
1155,18.44063793945313,4.430942535400391,-2.706674575805664,0.7870663404464722
1156,18.45644604492188,3.1742401123046875,-3.3925609588623047,1.6266725063323977
1157,18.4723759765625,1.231297492980957,-3.500349998474121,1.4903607368469238
1158,18.48818432617188,-0.4518413543701172,-3.2797422409057617,1.0618771314620972
1159,18.504022705078125,-1.5106725692749023,-2.848389148712158,0.7268697023391724
1160,18.51989208984375,-2.1439266204833984,-2.3495984077453613,0.1959090232849121
1161,18.5357001953125,-2.05912446975708,-2.0715572834014893,0.0399587154388427
1162,18.551599853515626,-1.0947465896606443,-1.8321152925491333,0.3054342269897461
1163,18.567407958984376,-0.2337865829467773,-1.7221506834030151,0.790783166885376
1164,18.5832158203125,0.185455322265625,-1.480043649673462,1.1515300273895264
1165,18.5990849609375,-0.637639045715332,-1.2096929550170898,0.6621553897857666
1166,18.614923828125,-2.116492748260498,-0.9120759963989258,-0.087112545967102
1167,18.63082348632813,-3.210925579071045,-0.7142522931098938,-0.5673137903213501
1168,18.64663134765625,-4.178290843963623,-0.6666627526283264,-0.7986857295036316
1169,18.6624091796875,-5.199102401733398,-0.6410645246505737,-0.6604562997817993
1170,18.678278076171875,-5.660357475280762,-0.6942735910415649,-0.6628460884094238
1171,18.69408642578125,-5.482082843780518,-0.7661278247833252,-0.798809826374054
1172,18.7100166015625,-5.285990238189697,-0.5350953340530396,-0.6536067724227905
1173,18.725855224609376,-5.729006290435791,-0.2962777614593506,-0.6590097546577454
1174,18.7416328125,-5.616166114807129,0.0353385210037231,-0.9516221284866332
1175,18.757501953125,-4.281267166137695,0.4736324548721313,-0.9945341348648072
1176,18.773279541015626,-1.008453369140625,0.960137128829956,-0.39175546169281
1177,18.78908740234375,2.7475357055664062,1.32283353805542,0.2515029609203338
1178,18.80492626953125,4.081729888916016,1.6670838594436646,0.307587206363678
1179,18.82070385742188,4.380548477172852,1.932021141052246,-0.2403830885887146
1180,18.83660327148437,4.3622026443481445,2.1913938522338867,-1.0697345733642578
1181,18.85244213867188,4.024731636047363,2.280806541442871,-1.3393701314926147
1182,18.86831127929688,3.989686965942383,1.9422398805618288,-1.1704342365264893
1183,18.884149658203125,5.921310424804688,1.3496769666671753,-1.214064121246338
1184,18.8999580078125,7.536035537719727,1.1134138107299805,-0.5107651948928833
1185,18.9158271484375,6.627965927124023,1.0722070932388306,-0.2497333884239196
1186,18.93163525390625,3.703815460205078,0.6724472045898438,-0.861404299736023
1187,18.947534912109376,0.987884521484375,-0.256930947303772,-1.763664484024048
1188,18.9633427734375,0.5941219329833984,-1.4011849164962769,-2.623228073120117
1189,18.9792119140625,1.93525505065918,-2.543024063110352,-2.171520233154297
1190,18.995111572265625,2.644399642944336,-3.286336898803711,-0.9426390528678894
1191,19.01088916015625,2.658529281616211,-3.421907424926758,0.1105029135942459
1192,19.02678881835937,1.2279720306396484,-2.9150965213775635,-0.1154489889740943
1193,19.04259716796875,-0.7872962951660156,-2.199602603912353,-0.6020499467849731
1194,19.058405029296875,-2.9533395767211914,-1.686717510223389,-1.239051103591919
1195,19.07421337890625,-3.292294502258301,-1.4240078926086426,-1.9539802074432373
1196,19.090021484375,-2.732907772064209,-1.3964862823486328,-1.9039306640625
1197,19.10592114257813,-1.2656259536743164,-1.2163488864898682,-1.4305890798568726
1198,19.121759765625,-0.7763004302978516,-0.922947645187378,-0.879158616065979
1199,19.137567626953125,-0.924673080444336,-0.4672188758850097,-0.4412769973278045
1200,19.15346728515625,-1.3539628982543943,-0.2290172576904297,-0.0363795459270477
1201,19.169244873046875,-2.1771998405456543,-0.5822612047195435,-0.2614727318286896
1202,19.18514453125,-2.8089756965637207,-1.0110807418823242,-0.3310208916664123
1203,19.2009833984375,-3.5887365341186523,-1.3365250825881958,0.205718994140625
1204,19.216883056640626,-4.775950908660889,-1.4217569828033447,0.8240194320678711
1205,19.232782470703125,-5.61477518081665,-1.049443244934082,0.8600372076034546
1206,19.2485908203125,-5.536936283111572,-0.3908843994140625,0.6931262016296387
1207,19.264459716796875,-3.807042598724365,0.4921891689300537,0.3619835376739502
1208,19.28023754882813,-1.923245429992676,1.110276222229004,-0.037530779838562
1209,19.29613720703125,-0.7418298721313477,1.5124778747558594,-0.5323906540870667
1210,19.31200634765625,0.1025857925415039,1.6666605472564695,-0.4448785185813904
1211,19.32778393554688,0.3106889724731445,1.730301856994629,-0.010122001171112
1212,19.34368359375,0.8812904357910156,1.8527820110321045,-0.2063369750976562
1213,19.359552734375,1.9757795333862305,1.8007032871246338,-0.7966408133506775
1214,19.37539111328125,3.027888298034668,1.5550477504730225,-0.9351254105567932
1215,19.39126049804688,4.277684211730957,1.1294653415679932,-0.4670717120170593
1216,19.407068359375,6.183669090270996,0.7580361366271973,-0.22629314661026
1217,19.4229375,7.952911376953125,1.064194917678833,0.0382572412490844
1218,19.438745849609376,6.416915893554688,1.6904048919677734,0.5716911554336548
1219,19.4546455078125,3.801929473876953,2.144679307937622,-0.1457388401031494
1220,19.4705146484375,1.6718082427978516,2.1146605014801025,-1.560441970825195
1221,19.486353271484376,2.056025505065918,1.1642580032348633,-2.208489894866944
1222,19.50234448242188,2.963374137878418,-0.1659386157989502,-0.9319664239883424
1223,19.51815234375,3.100561141967773,-1.375105857849121,0.7231127023696899
1224,19.533960693359376,2.4437990188598637,-2.2036640644073486,2.1164798736572266
1225,19.549799072265625,1.0713720321655271,-2.718467950820923,2.979722023010254
1226,19.56563793945313,0.1738061904907226,-2.851990222930908,2.6826345920562744
1227,19.58153759765625,-0.8896493911743164,-2.84206771850586,1.7891390323638916
1228,19.59737622070313,-2.2193994522094727,-2.835526466369629,1.0082260370254517
1229,19.61321459960937,-3.174388885498047,-2.7256855964660645,0.7848705053329468
1230,19.629083984375,-3.607511997222901,-2.546163320541382,0.8041366338729858
1231,19.644891845703125,-3.42020320892334,-2.24143385887146,0.5986114740371704
1232,19.66079150390625,-2.3525829315185547,-1.7870352268218994,0.1507455110549926
1233,19.67663037109375,-1.4693365097045898,-1.3894740343093872,-0.1987239122390747
1234,19.692468994140626,-1.2029953002929688,-0.674091100692749,-0.8412313461303711
1235,19.708307373046875,-1.9300212860107424,-0.212467074394226,-1.8661510944366453
1236,19.72408520507813,-2.908774375915528,0.1368856430053711,-2.183469533920288
1237,19.73998486328125,-3.4538044929504395,0.0187064409255981,-1.9961150884628296
1238,19.7558232421875,-3.335453510284424,0.0688813924789428,-1.548141360282898
1239,19.771600830078125,-3.675634860992432,0.0448642969131469,-0.9152960777282716
1240,19.787439697265626,-3.987201690673828,0.0853108167648315,-0.501906156539917
1241,19.8032783203125,-4.117694854736328,0.0643559694290161,-0.1924859881401062
1242,19.81908642578125,-3.225416660308838,0.2881127595901489,-0.1813946366310119
1243,19.83492504882813,-1.667590618133545,0.2936335802078247,0.3910387754440307
1244,19.85073315429688,-0.0452222824096679,0.2817884683609009,1.5452908277511597
1245,19.8666328125,2.1421117782592773,0.1867316961288452,2.0033061504364014
1246,19.88244091796875,3.8706560134887695,0.3624980449676513,1.7232425212860107
1247,19.89834057617188,4.439170837402344,0.68268883228302,1.4084982872009275
1248,19.914148681640626,3.4509668350219727,1.089245319366455,0.7211557030677795
1249,19.92995654296875,2.6876840591430664,1.57164204120636,0.1901388168334961
1250,19.94579541015625,3.571592330932617,1.958315372467041,-0.4804366827011108
1251,19.96166455078125,6.390396118164063,2.1598105430603027,-1.0436608791351318
1252,19.97753369140625,7.094086647033691,1.9771922826766968,-1.603079080581665
1253,19.9933720703125,5.625558853149414,1.6024943590164185,-1.974494218826294
1254,20.00914990234375,3.563075065612793,0.3931221961975097,-1.9642512798309328
1255,20.024988525390626,2.627267837524414,-1.399314284324646,-0.7556097507476807
1256,20.040796630859376,2.6788034439086914,-2.5893139839172363,0.373859167098999
1257,20.0566962890625,1.552506446838379,-3.4083118438720703,1.207658052444458
1258,20.07250439453125,1.1672649383544922,-3.54692006111145,0.5861045718193054
1259,20.08828173828125,1.1640262603759766,-3.132941722869873,-1.2802071571350098
1260,20.10415112304688,0.1437273025512695,-2.612440824508667,-2.138192176818848
1261,20.119958984375,-1.4972000122070312,-2.177865982055664,-2.1351609230041504
1262,20.135828125,-2.3695225715637207,-2.046846389770508,-1.9371967315673828
1263,20.151636474609376,-1.6016554832458496,-1.7017691135406494,-1.358971118927002
1264,20.167474853515625,-1.0177583694458008,-1.2884283065795898,-0.5420847535133362
1265,20.18337451171875,-1.1637296676635742,-0.7067236304283142,0.0196096897125244
1266,20.19912158203125,-1.2776861190795898,-0.2853070497512817,-0.0122604370117187
1267,20.21505200195313,-2.0599403381347656,0.0415589809417724,-0.2440589666366577
1268,20.23089038085937,-3.505789279937744,0.256386399269104,-0.5695194005966187
1269,20.24672924804688,-4.715155124664307,0.1919898986816406,-1.0201163291931152
1270,20.26262890625,-4.809226512908936,0.1016762256622314,-1.1135913133621216
1271,20.278406494140626,-4.085347652435303,-0.2974951267242431,-0.6321172118186951
1272,20.29430615234375,-2.9178996086120605,-0.5139502286911011,-0.313340425491333
1273,20.3101142578125,-2.7871484756469727,-0.3881138563156128,0.118126630783081
1274,20.32592236328125,-3.266697406768799,-0.29255211353302,0.229239821434021
1275,20.34179150390625,-2.9646224975585938,-0.0770773887634277,-0.0604747533798217
1276,20.35756909179688,-1.7030162811279297,0.3152357339859009,-0.6793941259384155
1277,20.3734990234375,-0.2126245498657226,0.6858125925064087,-0.7242871522903442
1278,20.389276611328125,0.323709487915039,1.280890941619873,-0.2222825288772583
1279,20.405115478515626,-0.9689226150512696,1.7482470273971558,0.012414813041687
1280,20.420984619140626,-1.0325994491577148,1.9262017011642456,-0.6561124324798584
1281,20.43673168945313,1.6325912475585938,1.738972544670105,-1.3014352321624756
1282,20.452661865234376,5.139291763305664,0.942829728126526,-1.1232532262802124
1283,20.46846997070313,7.786789894104004,0.5667393207550049,0.389889121055603
1284,20.48427807617188,7.627253532409668,0.5541054010391235,0.9860349893569946
1285,20.500177734375,7.094950675964356,1.439114332199097,0.7496663331985474
1286,20.51614331054688,4.987547874450684,2.074380159378052,-0.5515450239181519
1287,20.53204296875,2.809539794921875,1.6320123672485352,-1.7347501516342163
1288,20.5478818359375,2.1689558029174805,0.2946395874023437,-1.994898557662964
1289,20.56372021484375,2.922494888305664,-1.2450441122055054,-0.9107427000999452
1290,20.57961987304688,2.4681711196899414,-2.1879069805145264,0.8733525276184082
1291,20.595397705078124,0.8158035278320312,-2.775203227996826,1.9078168869018557
1292,20.611236083984377,-0.7015151977539062,-2.928217649459839,2.159294605255127
1293,20.62707470703125,-1.4220237731933594,-2.879152774810791,1.7943902015686035
1294,20.6428828125,-1.0861692428588867,-2.778989553451538,1.137470841407776
1295,20.658813232421878,-0.6435356140136719,-2.6242170333862305,0.880406379699707
1296,20.6745908203125,-0.877903938293457,-2.394054651260376,0.8864485025405884
1297,20.690490478515624,-1.0259580612182615,-1.963803768157959,0.4378541707992553
1298,20.70632885742188,-1.1978216171264648,-1.512521743774414,0.3221831321716308
1299,20.72219799804688,-1.584491729736328,-0.9402650594711304,0.1310229301452636
1300,20.73806713867188,-2.306948184967041,-0.5181742310523987,-0.2168304920196533
1301,20.753814208984377,-2.7339816093444824,-0.3146612048149109,-0.7386096119880676
1302,20.769744384765627,-3.182689666748047,-0.1789634823799133,-1.1526720523834229
1303,20.785552734375,-3.8709425926208496,-0.0787822604179382,-0.969422459602356
1304,20.801360595703127,-4.38189697265625,-0.0903199911117553,-0.9758241772651672
1305,20.817229736328127,-4.701652050018311,-0.0739864110946655,-0.9657690525054932
1306,20.83300732421875,-4.721264839172363,0.0167403221130371,-1.1036781072616575
1307,20.8489375,-4.07062292098999,0.2240192890167236,-0.7129310369491577
1308,20.86477612304688,-2.8098111152648926,0.4223750829696655,-0.040906012058258
1309,20.88061499023437,-1.543198585510254,0.7467852830886841,0.5573692321777344
1310,20.89648388671875,-1.403120994567871,0.9815044403076172,0.6876899003982544
1311,20.9122919921875,-0.3408193588256836,1.174009919166565,0.8819693326950073
1312,20.928191650390627,2.6223602294921875,1.309394121170044,0.7939575910568237
1313,20.944030517578124,5.160573959350586,1.403675198554993,0.9672679901123048
1314,20.95983837890625,5.256604194641113,1.3993327617645264,1.213770866394043
1315,20.975707763671878,4.446876525878906,1.1764476299285889,0.7324814200401306
1316,20.99148510742188,4.01145076751709,0.8565415143966675,0.1298099160194397
1317,21.00732397460937,4.98478889465332,0.7541921138763428,0.1794793009757995
1318,21.023162353515627,6.302490234375,0.5410498380661011,0.1319313645362854
1319,21.039031494140627,6.258170127868652,0.4238094091415405,0.1052712798118591
1320,21.054900634765627,4.201247215270996,0.1297500133514404,-0.6721723079681396
1321,21.07067822265625,3.049405097961426,-0.5464708805084229,-1.631669521331787
1322,21.0866083984375,2.965673446655273,-1.3256460428237915,-1.4881510734558103
1323,21.10238623046875,2.911126136779785,-1.90701162815094,-0.990570068359375
1324,21.11816381835937,1.897775650024414,-2.270343065261841,-0.8525877594947815
1325,21.13403295898437,0.2985334396362304,-2.161163330078125,-0.8591305613517761
1326,21.149871337890627,-1.4168806076049805,-1.8683385848999023,-1.141918420791626
1327,21.165740478515627,-3.1144113540649414,-1.4331727027893066,-1.583951115608215
1328,21.181548583984377,-3.3617067337036133,-1.1555547714233398,-2.15053939819336
1329,21.197356689453127,-3.0838446617126465,-1.0374433994293213,-2.7640299797058105
1330,21.21322607421875,-1.734250545501709,-1.09022855758667,-2.862826347351074
1331,21.22900341796875,0.2714109420776367,-1.0835368633270264,-2.133416652679444
1332,21.24487280273437,0.5751409530639648,-0.9453347325325012,-1.3470079898834229
1333,21.260650146484377,-0.8197574615478516,-0.6125695705413818,-0.8402884006500244
1334,21.276458251953127,-3.189830780029297,-0.3687384128570556,-0.6700295209884644
1335,21.292327392578127,-4.472811222076416,-0.164823293685913,-1.1925628185272217
1336,21.3081357421875,-5.486837387084961,-0.111473798751831,-0.6142779588699341
1337,21.32397412109375,-6.043207168579102,-0.2225575447082519,0.0001273155212402
1338,21.339782470703124,-5.856207847595215,-0.2642902135848999,0.2622954845428467
1339,21.355559814453127,-4.909255027770996,-0.3910118341445923,0.154462456703186
1340,21.37145947265625,-3.7637763023376474,-0.1630988121032714,0.4751501083374023
1341,21.387359130859377,-2.868922233581543,0.1317931413650512,-0.0039387941360473
1342,21.4032587890625,-1.6183323860168457,0.6068007946014404,-0.2376676797866821
1343,21.419036376953127,0.7882404327392578,0.699077844619751,-0.2783985733985901
1344,21.434875244140624,3.199378967285156,0.7974048852920532,0.255844235420227
1345,21.45071362304688,3.526515007019043,1.0032072067260742,1.003443956375122
1346,21.46652197265625,2.645170211791992,1.4092336893081665,1.1443743705749512
1347,21.48239111328125,2.7434043884277344,1.597905158996582,-0.2009248733520507
1348,21.498198974609377,3.2847728729248047,1.5406264066696167,-1.4987521171569824
1349,21.514007080078127,4.126190185546875,0.9589751958847046,-1.389733910560608
1350,21.5299375,6.230582237243652,0.6385051012039185,-0.2942214012145996
1351,21.545806640625,7.825741767883301,0.7183928489685059,0.3348079919815063
1352,21.561675537109377,6.462464332580566,1.0836836099624634,0.2768045663833618
1353,21.57751416015625,3.117403030395508,1.2208986282348633,-0.1771552562713623
1354,21.59329174804688,0.8697538375854492,0.8320927619934082,-1.175694465637207
1355,21.60916088867188,1.2527198791503906,0.0829153060913086,-1.49462628364563
1356,21.6249384765625,2.060603141784668,-0.8084081411361694,-1.034886121749878
1357,21.640838134765627,1.4541597366333008,-1.7605745792388916,0.7760884761810303
1358,21.65661572265625,0.1500177383422851,-2.2663824558258057,1.982157111167908
1359,21.672423828125,-0.5866279602050781,-2.596779584884644,2.184543371200561
1360,21.688323486328127,-0.6681909561157227,-2.5726470947265625,1.7721885442733765
1361,21.70413159179688,-1.1604852676391602,-2.5164225101470947,0.9729691743850708
1362,21.71993994140625,-1.3869590759277344,-2.3693552017211914,0.3697779178619385
1363,21.735747802734377,-1.2563295364379885,-2.2613446712493896,0.3745825290679931
1364,21.75155615234375,-1.2567739486694336,-2.0639641284942627,1.0149447917938232
1365,21.767455810546878,-1.0439157485961914,-1.58567214012146,0.7267093062400818
1366,21.78332470703125,-0.2485036849975586,-0.7285814881324768,-0.3762359023094177
1367,21.79919384765625,-0.614659309387207,-0.2041361331939697,-1.7571502923965454
1368,21.81497143554688,-1.3634510040283203,0.4643148183822632,-2.6803417205810547
1369,21.830779541015627,-2.7573318481445312,0.4872747659683227,-2.5607681274414062
1370,21.84667919921875,-4.038619518280029,0.2428691387176513,-1.7116942405700684
1371,21.8624873046875,-4.411763668060303,-0.1247060298919677,-0.8665096163749695
1372,21.878386962890627,-4.8815789222717285,-0.3768928050994873,-0.1981520056724548
1373,21.8941953125,-5.022195339202881,-0.4545254707336426,0.3531776666641235
1374,21.91003369140625,-4.769282817840576,-0.2141695022583007,0.5845906734466553
1375,21.92590283203125,-4.349112510681152,0.2833174467086792,0.0583071708679199
1376,21.94168041992188,-3.175134658813477,0.571318507194519,-0.4974599480628967
1377,21.95761083984375,-0.3787412643432617,0.7181912660598755,-0.2145725488662719
1378,21.97341870117188,1.8195505142211916,0.6639397144317627,0.8693034052848816
1379,21.98928784179688,2.94258975982666,0.8502837419509888,1.5738046169281006
1380,22.0050654296875,2.518442153930664,1.2929445505142212,1.738653540611267
1381,22.020873779296878,2.446386337280273,1.6218822002410889,1.0207796096801758
1382,22.036712158203127,3.5707807540893555,2.093785285949707,-0.3160680830478668
1383,22.0525205078125,5.092004776000977,2.394043445587158,-1.902054786682129
1384,22.068328369140627,7.139249801635742,2.6167690753936768,-2.6602978706359863
1385,22.08422802734375,8.015910148620605,2.7226834297180176,-2.752408981323242
1386,22.1000361328125,6.204961776733398,2.389693260192871,-2.725296974182129
1387,22.11596655273437,3.98736572265625,1.634009599685669,-2.402977466583252
1388,22.131713623046878,2.128551483154297,0.0241230726242065,-1.852368116378784
1389,22.147552001953127,1.4935579299926758,-1.8216160535812376,0.2954557538032532
1390,22.163482421875,0.9299945831298828,-3.1550021171569824,1.456557273864746
1391,22.179290283203127,0.1402349472045898,-3.777399778366089,2.030004501342773
1392,22.195129150390624,-0.2698125839233398,-3.74837327003479,1.944493293762207
1393,22.21093701171875,-0.8239202499389648,-3.375955104827881,1.5416988134384155
1394,22.2267451171875,-1.7870941162109375,-2.7898380756378174,0.5485808849334717
1395,22.242644775390627,-2.213259220123291,-2.0038692951202397,-0.5011670589447021
1396,22.258513916015627,-2.052098274230957,-1.39680814743042,-1.1082589626312256
1397,22.2743525390625,-1.4261960983276367,-0.828485369682312,-1.3450384140014648
1398,22.29016064453125,-0.8592977523803711,-0.3669862747192383,-1.3837584257125854
1399,22.30602978515625,-0.6136913299560547,0.0946928262710571,-1.077196478843689
1400,22.32189892578125,-1.0534582138061523,0.315213680267334,-0.7073079347610474
1401,22.33773779296875,-1.839476585388184,0.4661988019943237,-0.6561481952667236
1402,22.3536982421875,-2.6614484786987305,0.5264725685119629,-0.6967893242835999
1403,22.369475830078127,-3.392373561859131,0.4172167778015136,-1.1736716032028198
1404,22.3852841796875,-3.8439278602600098,0.262508749961853,-1.1782140731811523
1405,22.4011533203125,-4.092790603637695,-0.0491230487823486,-0.8064302206039429
1406,22.416930908203124,-4.055270671844482,-0.2902119159698486,0.0847877264022827
1407,22.43283056640625,-4.056973934173584,-0.3350505828857422,1.1184355020523071
1408,22.4486689453125,-4.151818752288818,-0.1622048616409301,0.8923132419586182
1409,22.46444677734375,-3.605124473571777,0.2848947048187256,-0.5340411067008972
1410,22.480315673828127,-1.5983400344848633,0.6742113828659058,-1.135151982307434
1411,22.49609350585937,1.5123071670532229,0.7247629165649414,-1.0364015102386477
1412,22.5119931640625,3.6720781326293945,0.9589698314666748,-0.1087548732757568
1413,22.52783154296875,3.776968955993652,1.2677674293518066,1.0472182035446167
1414,22.54370068359375,1.969101905822754,1.5218945741653442,1.09641695022583
1415,22.55960034179688,1.2902984619140625,1.4259384870529177,0.0286824703216552
1416,22.57543920898437,2.974297523498535,1.1010133028030396,-1.3087211847305298
1417,22.591369140625,5.21524715423584,0.7944711446762085,-1.0021408796310425
1418,22.60723828125,6.471588134765625,1.0059579610824585,0.0186513662338256
1419,22.62304638671875,5.78620719909668,1.6212151050567627,0.7664710283279419
1420,22.638976806640624,3.691961288452149,1.8737319707870483,-0.4237219095230102
1421,22.654723876953124,2.3989620208740234,1.259026288986206,-1.568445324897766
1422,22.67062353515625,2.962610244750977,-0.1447715759277343,-0.9640742540359496
1423,22.6864619140625,4.4679365158081055,-1.3030864000320437,0.0956544876098632
1424,22.702270263671878,3.9518537521362314,-2.233567237854004,1.7868767976760864
1425,22.71813916015625,1.6602754592895508,-2.587490558624268,3.1939640045166016
1426,22.7339169921875,-0.6652202606201172,-2.79964017868042,3.207908868789673
1427,22.749816650390624,-1.6787400245666504,-2.730353355407715,2.3766303062438965
1428,22.76565502929688,-2.011544704437256,-2.2985455989837646,1.34726881980896
1429,22.7814326171875,-2.4460244178771973,-1.7290443181991575,0.631995677947998
1430,22.7973017578125,-1.7913999557495115,-1.1364998817443848,-0.4948307871818542
1431,22.813110107421878,-1.0772943496704102,-0.6975921392440796,-1.207611322402954
1432,22.828948486328127,-0.6845502853393555,-0.3832191228866577,-1.457967758178711
1433,22.844787109375,-0.5698814392089844,-0.1736258268356323,-1.5839462280273438
1434,22.8606259765625,-1.1639652252197266,0.0298763513565063,-1.9237465858459477
1435,22.87649487304688,-2.4781994819641118,0.0396538972854614,-2.0264151096343994
1436,22.892272705078124,-4.096406936645508,0.0325919389724731,-2.1634109020233154
1437,22.90817236328125,-5.436078071594238,-0.06502366065979,-1.6890933513641355
1438,22.9240107421875,-5.730703830718994,-0.2646138668060303,-0.9190467000007628
1439,22.939849365234377,-5.486982345581055,-0.4786190986633301,-0.1964156031608581
1440,22.9557490234375,-5.473445415496826,-0.4590989351272583,0.6327511072158813
1441,22.971587890625,-5.184925079345703,-0.2107053995132446,1.4074978828430176
1442,22.987487548828124,-4.675414085388184,0.1445869207382202,1.7068169116973877
1443,23.00329541015625,-3.18985366821289,0.3327046632766723,1.099374532699585
1444,23.01913427734375,-0.3581056594848633,0.5339527130126953,0.3848628401756286
1445,23.035003173828127,2.846017837524414,0.7272814512252808,0.4086546301841736
1446,23.05078100585937,4.732988357543945,0.8819423913955688,0.8162208795547485
1447,23.0667109375,5.017077445983887,1.249220848083496,0.7033141851425171
1448,23.0825498046875,3.8287200927734375,1.742153882980347,-0.1724465787410736
1449,23.098357666015627,3.6030664443969727,2.102748394012451,-1.8037904500961304
1450,23.11422705078125,4.575936317443848,2.2469754219055176,-2.255011796951294
1451,23.1300654296875,6.210550308227539,2.274839162826538,-1.2214428186416626
1452,23.1459345703125,6.767502784729004,2.198404550552368,-0.2572776675224304
1453,23.161742919921878,5.7126569747924805,1.8064948320388796,-0.625460684299469
1454,23.177581298828127,3.477153778076172,0.8193297386169434,-0.7756579518318176
1455,23.193450439453127,2.236026763916016,-0.7537071704864502,-0.721983790397644
1456,23.20922802734375,2.194629669189453,-2.0941274166107178,-0.0925913453102111
1457,23.22512768554688,2.331188201904297,-2.829014301300049,0.5846545696258545
1458,23.24093603515625,2.004633903503418,-3.088486671447754,0.8881362080574036
1459,23.25671337890625,1.347367286682129,-2.811307668685913,0.3773511052131653
1460,23.272582763671878,-0.115086555480957,-2.172826766967773,-0.5201610326766968
1461,23.288451904296878,-2.3085665702819824,-1.3489644527435305,-1.424119472503662
1462,23.304290283203127,-3.8099422454833984,-0.5780785083770752,-2.121748924255371
1463,23.32012890625,-4.104015827178955,-0.2496553659439087,-2.731926679611206
1464,23.335906494140627,-3.0627732276916504,-0.347909927368164,-2.418539524078369
1465,23.35180615234375,-1.150303840637207,-0.7779085636138916,-1.658111810684204
1466,23.36764501953125,0.3966817855834961,-1.0879662036895752,-0.6926308274269104
1467,23.38354467773437,0.5129241943359375,-0.9276070594787598,-0.1969811916351318
1468,23.39941381835937,-0.8853664398193359,-0.7064753174781799,-0.0815988183021545
1469,23.41519140625,-2.7791552543640137,-0.6117775440216064,-0.1242998242378234
1470,23.431060546875,-3.8307676315307617,-0.4995288848876953,-0.3549934029579162
1471,23.446838134765624,-4.394818305969238,-0.354938268661499,-0.4418378472328186
1472,23.462737548828127,-5.071058750152588,-0.448194146156311,-0.0394937992095947
1473,23.47854565429688,-5.308465003967285,-0.5061697959899902,0.8016529083251953
1474,23.49435400390625,-5.0449724197387695,-0.6318392157554626,1.0017472505569458
1475,23.51025366210937,-3.901992321014404,-0.2480250597000122,0.4870632886886596
1476,23.526031005859377,-2.572343349456787,0.0582809448242187,-0.0627453327178955
1477,23.5420224609375,-0.7718391418457031,0.6689276695251465,-0.3968158960342407
1478,23.557830322265627,1.1031475067138672,1.3048224449157717,-0.4675503373146057
1479,23.57360791015625,2.355815887451172,1.7116605043411257,-0.5498135685920715
1480,23.58938549804688,2.5294981002807617,2.1449666023254395,-0.8056240081787109
1481,23.60519384765625,2.4769411087036133,2.16715145111084,-1.247075080871582
1482,23.6210322265625,3.859110832214356,1.8726404905319212,-1.7703945636749268
1483,23.63684033203125,5.683594703674316,1.3100121021270752,-2.28773832321167
1484,23.6526484375,8.096020698547363,1.3702365159988403,-1.7317403554916382
1485,23.668517578125,7.417655944824219,1.9292314052581787,-0.8467413187026978
1486,23.684295166015627,4.430214881896973,2.4230403900146484,-1.4684245586395264
1487,23.700164306640627,0.8176822662353516,1.9759451150894165,-1.7664642333984375
1488,23.716003173828124,1.1064319610595703,0.7465091943740845,-1.6832433938980105
1489,23.731872314453124,3.039981842041016,-0.7746536731719971,-0.7642347812652588
1490,23.74764990234375,3.657583236694336,-1.8243132829666135,1.642023682594299
1491,23.76345776367188,2.6170482635498047,-2.472166061401367,3.6386895179748535
